aX,aY,aZ,temperature,gX,gY,gZ
,-427,5364,-109,,,
2124,4284,16832,17.38,-414,849,160
2536,3740,17512,17.47,114,746,804
1940,4212,17504,17.47,-626,2254,895
1784,5292,17420,17.47,754,1283,-480
2816,3004,15432,17.38,-4690,-8092,2388
1228,2740,17644,17.47,-1932,4446,49
712,4184,21240,17.47,927,2086,-494
-2144,2784,14112,17.47,-1141,-1038,-1623
-184,2280,13968,17.47,-2561,3138,-65
-268,360,15268,17.57,-2677,1155,-2092
-1608,852,15764,17.47,-598,3614,1008
-2360,1056,17956,17.38,-1378,6003,-373
-2076,1096,19108,17.47,-811,-3379,1884
4488,1552,14716,17.47,2867,-12321,-559
612,2600,17856,17.52,-3554,16165,-1544
1352,1844,16012,17.42,-511,7488,-444
1484,1696,17352,17.52,-730,-965,-1093
884,2520,16976,17.52,-1929,15224,-2313
-3664,1748,15952,17.52,-1811,13671,-518
-3160,2628,17348,17.42,3229,-30090,1859
-1176,2300,18268,17.42,-228,2254,-126
304,1500,17900,17.42,1278,-781,143
384,1532,19124,17.42,1251,-59,3085
-196,2408,16424,17.42,-443,3748,1050
-120,1532,16356,17.38,-1173,321,773
188,1608,17024,17.42,-1494,1452,17
-48,2000,17432,17.38,-1335,-1441,541
-48,2960,16872,17.47,2,-129,-520
-136,2780,18044,17.52,1600,-4301,-165
884,2772,17816,17.42,128,108,1372
760,1848,17628,17.42,-41,4620,-1778
708,992,17116,17.42,-2672,1320,-242
1352,1320,16372,17.42,-1117,-141,1091
-956,1740,18608,17.42,-1414,148,83
-292,1532,17936,17.42,493,307,-367
864,2304,18040,17.42,-418,1107,1964
1628,3088,17540,17.52,2610,-4940,993
-4,368,17120,17.52,-811,1349,1190
696,0,19716,17.47,521,11003,675
692,384,16136,17.57,-1933,9174,703
-48,864,17436,17.42,1081,-3348,1598
-1168,2036,16400,17.47,2239,3358,1487
1512,1772,20292,17.38,2984,6984,-2009
-92,1280,21660,17.38,-165,2683,-2846
772,1372,16488,17.47,-285,2396,-2331
244,3180,15656,17.47,-819,3217,-3869
-2492,3660,15344,17.47,6864,-3582,-3598
-1280,3876,15688,17.47,3758,-1339,437
-5276,2124,20076,17.47,-808,1553,-231
380,3316,16108,17.47,-2225,4990,843
-3632,3432,15000,17.42,92,-1147,753
-56,3884,12552,17.42,-1596,-130,1607
-1664,4844,18912,17.52,-178,-599,-1008
-976,4284,22824,17.52,-1636,809,-1419
-2028,1892,18472,17.42,1796,1023,-551
372,4656,15456,17.52,3077,-1882,186
696,5036,13988,17.52,3292,-2371,1288
1008,6276,17020,17.52,1164,-375,2032
-1340,5696,20500,17.52,-2394,2901,-1413
-84,4676,14776,17.61,795,-1255,1082
-1752,3424,14432,17.42,-2466,944,906
-1896,3864,14096,17.47,-944,1560,1360
-1428,3560,20224,17.57,3539,1597,-1713
-3344,3200,22412,17.57,3607,-1519,-7113
2488,4612,18564,17.57,-201,-1114,1161
320,4364,15284,17.57,-541,381,-1525
-2328,3228,17348,17.42,-686,186,-213
1388,7220,16160,17.52,2420,-1494,-2132
3140,6392,17908,17.42,-1646,1147,2330
132,4400,16052,17.52,-1469,1037,1887
-2780,2948,14980,17.61,-2274,-883,1795
-320,4204,15232,17.52,-295,-454,2218
-2152,3456,14168,17.52,1220,688,152
-236,4404,18364,17.42,-886,136,-2002
2032,4564,16800,17.57,-1788,140,161
-488,3228,17148,17.57,-1208,2189,-2281
-28,3732,13528,17.47,457,740,-399
-2396,4668,16524,17.52,2056,-813,206
-344,4608,19260,17.52,2208,2548,527
-3784,3200,20120,17.42,-2322,862,909
-152,2772,15452,17.52,-3184,2647,-948
-884,3376,15496,17.52,-1119,2008,-187
-1448,3520,14120,17.57,1191,2272,-1438
-1980,4856,18428,17.47,-490,1155,700
-1836,4148,19952,17.47,-2352,715,-1480
-1640,2916,18344,17.47,-1571,-460,-623
-1328,3636,15280,17.47,-1028,497,112
-1272,3424,14388,17.57,476,-291,644
-1712,4268,20168,17.47,1510,-2044,-299
-1496,4172,22324,17.47,-1266,150,-655
-1164,2796,15216,17.57,-1232,-609,1662
-868,2900,16036,17.47,-1153,347,1334
-604,3164,13536,17.57,463,311,879
-936,3700,18040,17.52,673,1066,-963
-2160,3300,20956,17.52,136,941,-1571
-2396,2540,19704,17.52,-522,1124,-619
16,3068,16904,17.57,-1446,1655,-561
-788,2972,13380,17.52,1105,1367,-375
-1396,4828,18792,17.47,1654,95,-1735
-1340,4536,18604,17.66,-1416,548,1752
-420,3648,17508,17.52,315,243,2008
-708,1752,15216,17.52,-1535,-2128,949
-232,3496,17140,17.61,61,137,2383
280,4352,16360,17.52,2258,440,189
784,4748,20040,17.42,2401,336,-1450
-1000,3172,19268,17.52,-2172,51,-1924
-804,2740,15480,17.52,-2079,-62,-1952
-3480,2256,13528,17.47,-182,-300,372
-960,4744,16676,17.57,1728,984,-155
-20,4936,18996,17.57,2170,-1375,820
-1052,2128,22164,17.52,-210,-2518,1870
-2080,1848,17420,17.52,-1410,-406,612
-1168,2784,14508,17.57,-188,-854,527
-1976,3656,15644,17.61,1282,57,-453
-1316,3888,19720,17.61,-292,-66,-428
-184,3512,21396,17.61,-1719,448,-2296
-584,2284,17048,17.52,-406,161,-1324
-1208,2736,15656,17.52,-756,543,-434
-616,3632,16416,17.61,653,1559,-962
-2864,3464,18512,17.61,2493,258,251
-3228,2392,18116,17.52,-1225,66,588
-4068,2108,18636,17.52,-2765,751,752
-168,3448,14336,17.61,-711,560,814
832,3368,15068,17.61,1575,217,-392
-2368,2868,17768,17.52,2202,-357,-1504
-2024,3824,18260,17.52,-1302,-169,-1672
-2368,2064,18620,17.61,-2683,1267,-886
-1580,2928,16000,17.52,368,673,-1010
-952,3356,13900,17.52,1583,211,-259
-3076,3688,18532,17.42,978,-26,-51
-1344,5060,18264,17.61,1482,1265,299
-940,3404,18036,17.52,-1575,699,471
-916,2960,16032,17.52,-280,-1385,1234
-100,3032,14128,17.52,1191,151,1328
-968,3588,18340,17.52,1895,449,-1530
-1876,3052,19884,17.52,1723,2700,-1800
-1388,3300,17044,17.52,-1157,65,-700
-2232,2960,16716,17.52,-1222,-1187,-1019
-1896,3300,13564,17.61,79,-1622,2522
-2152,4412,18476,17.52,1486,210,-712
-220,5032,19220,17.57,1185,1279,253
-2244,3456,18196,17.57,-1151,202,2005
456,3016,16240,17.57,-1012,-1765,1741
-716,3376,14740,17.57,-111,-993,698
-1784,3480,16852,17.47,364,-1171,-451
124,4136,19648,17.47,1464,-1171,-520
-2424,3232,18776,17.57,-2129,464,-2852
-2060,2208,17348,17.57,-1957,-266,-2221
-2432,3052,15700,17.57,-273,236,-441
-212,4492,16656,17.57,1134,1266,-252
236,3896,18800,17.57,376,3312,-387
-2204,3676,19448,17.57,-1801,-959,483
-2288,2148,17468,17.47,-977,-39,2168
-100,2844,14872,17.47,-1084,-1359,1371
16,3884,17096,17.61,1818,-67,-524
-788,3224,17584,17.52,2517,-1362,-1321
-160,2864,17552,17.61,-1713,1553,-2882
-1544,2376,18316,17.61,-1150,1195,-2617
60,4212,14404,17.52,-1906,597,-2178
-1472,3976,14828,17.52,-122,-786,25
-1864,3464,18984,17.61,1105,-1087,624
-1648,3160,18956,17.52,-1637,1189,-506
-2412,2932,17932,17.52,-1696,1587,2203
-244,2668,16004,17.52,-601,1207,999
1100,3548,15452,17.52,180,499,1276
448,2556,18196,17.57,2204,1210,-1002
212,2712,18512,17.61,-1011,1339,-2990
180,2256,17356,17.57,210,942,-147
-564,3964,14508,17.57,-478,-2053,0
-532,3760,13880,17.57,1022,673,32
480,4244,18456,17.42,1342,392,-998
-644,4048,17468,17.57,-393,3486,-1479
-1276,3244,17844,17.57,-1260,2031,1546
340,3148,15344,17.57,-2173,550,1350
1608,5048,14784,17.57,584,-1505,1511
-3356,2680,17076,17.61,2823,-623,-2330
-952,2920,18700,17.61,-169,731,-3304
-836,3020,19232,17.61,-1021,909,-1045
-612,3900,15804,17.52,-1240,-1455,-198
-1452,3376,14064,17.52,1312,-605,638
1128,5672,17376,17.66,1322,-1464,-699
-1136,4288,19100,17.47,875,-176,526
-984,3740,18916,17.47,-2398,485,2532
-1068,2312,16196,17.57,-2371,82,2044
1960,3756,15924,17.57,416,-2427,2616
992,3912,16024,17.57,1646,-1433,-638
848,5592,20776,17.66,3091,-924,-1775
-628,3224,18004,17.66,-1979,27,-2622
-92,2828,15764,17.66,-1780,-1870,-2328
-1632,3132,16724,17.57,-1725,-3224,333
52,4084,16692,17.57,298,1079,-321
-172,3324,20400,17.61,2740,392,196
-1524,2472,22428,17.61,-1314,1442,1919
-776,2224,17184,17.52,-1421,778,294
384,3264,14492,17.61,-341,1482,704
-396,4492,14796,17.61,524,1362,183
-1620,3016,18316,17.61,1659,-1599,-242
-1828,2856,19832,17.57,-2755,1360,-2590
20,3584,17856,17.66,5,-740,709
-460,3580,14288,17.57,2634,1044,-593
644,4960,14716,17.57,869,-301,23
-876,4384,18372,17.57,1241,-29,907
-2772,3964,18872,17.57,-1440,658,155
-2560,2604,16692,17.57,-1441,1218,744
-12,3632,16656,17.57,-469,-327,1224
680,3548,14820,17.47,1658,-331,183
-584,3140,18184,17.66,2367,-864,-4391
-1412,3780,19896,17.57,-2468,45,-2394
-532,2908,17576,17.61,99,-290,-81
764,4368,15732,17.57,-792,1289,63
-668,3880,14196,17.57,-117,764,1109
-992,4476,18628,17.57,863,444,820
-1328,4048,20944,17.66,152,975,-1037
-2708,3080,18448,17.57,521,-692,1799
-1352,1840,14796,17.57,-2202,210,997
444,3736,13992,17.42,-263,-590,1236
-948,3776,15236,17.66,1330,-1026,-894
-456,3740,21924,17.66,695,-1197,-2175
-2284,2904,20760,17.57,-1076,563,-591
-324,1808,15972,17.57,-923,-179,-726
-1768,2488,14088,17.66,191,472,-219
-1200,4624,16716,17.57,678,91,-294
-1224,4244,21288,17.57,1936,215,644
-3124,1256,23488,17.66,-144,-1367,1093
-2104,1612,15692,17.66,-1011,-576,664
-984,2568,13400,17.66,-433,865,1122
-1648,3640,14036,17.61,1229,-454,326
-1244,3620,19440,17.61,-537,-872,-1257
-272,3688,20716,17.61,-781,262,-1694
-1440,2220,17480,17.61,-104,30,-206
-288,3664,14152,17.61,-614,1815,-124
244,4148,14452,17.61,290,1267,901
-1440,4544,19660,17.71,1340,335,913
-1180,4008,18788,17.57,335,693,-430
-2760,2476,18040,17.57,-200,209,586
-1224,2132,15920,17.57,-913,590,-152
-1204,2604,13800,17.57,213,390,-4
-1364,4176,16628,17.66,-219,-3,-251
-960,5004,19092,17.57,659,66,12
-1636,2836,19800,17.57,-1672,820,-1282
-620,3092,15728,17.66,-828,509,-1002
-1716,2900,14164,17.47,-266,216,469
16,4288,16324,17.61,856,1402,171
-1028,3828,18672,17.52,1149,384,80
-3404,1952,22272,17.61,-2573,377,-632
-3196,1200,18960,17.61,-1360,282,1077
-2804,2332,15584,17.61,-963,-691,884
-1404,2712,14448,17.66,1498,374,464
-1792,3536,17380,17.57,1334,427,-1117
-1772,3100,21144,17.57,-1397,466,-2342
-1360,1704,20332,17.61,599,255,-622
-612,2628,15428,17.71,-99,1027,-288
-1136,3344,13892,17.61,1066,483,800
-2512,4020,19048,17.61,1707,90,468
-820,4816,19668,17.61,1344,1368,663
-2280,3100,18336,17.66,-1090,1275,1127
-752,3428,15584,17.57,-2010,2669,499
144,3240,14708,17.66,376,1565,135
-716,4180,16064,17.66,2048,-538,-959
76,4596,19868,17.57,645,198,-2937
-2480,3408,19920,17.66,-1744,15,-1665
-984,2584,14864,17.66,-3159,-84,-701
-1852,2852,14744,17.66,-1067,176,722
-916,4248,15176,17.57,991,398,51
-2212,4004,19588,17.57,2761,-609,-48
-3152,2744,21352,17.57,-1600,-456,-509
-3232,1644,18624,17.66,-1035,-501,1536
-836,2616,14848,17.52,-1357,-348,1583
-1620,3068,14240,17.61,726,646,33
-2164,3756,17872,17.61,293,271,-484
-1556,2112,20860,17.61,-2187,-1400,-1416
-492,1472,21548,17.61,-998,-625,-860
-1692,2748,13024,17.66,1272,1820,-970
-28,3908,14384,17.66,1626,895,-3
-52,5068,15628,17.57,883,255,932
-1164,3588,19612,17.66,-343,618,-371
-2732,2260,20260,17.66,-1447,141,1344
-804,3108,16160,17.66,-508,-765,514
288,3100,14384,17.52,427,-250,348
-768,4260,15024,17.61,921,796,-393
-484,5240,19992,17.71,-322,-1147,-583
-1332,3732,19176,17.61,-1002,398,-1518
-1068,2640,14764,17.61,-1345,395,-1181
-2380,1968,16664,17.61,-1396,133,-286
-696,4164,17252,17.71,1809,537,28
-988,3800,20676,17.66,2941,-780,152
-3168,2888,20568,17.66,-1730,-199,-168
-2632,1972,18980,17.66,-1639,-213,807
-1608,2416,15236,17.66,-1263,726,613
-1332,3096,15292,17.66,1002,23,551
-1920,3044,19916,17.75,2236,-351,-1487
-1508,3696,19616,17.66,-1465,300,-3636
-1184,2456,16900,17.71,-1608,873,-490
-1472,2520,15920,17.71,-970,1341,-727
-1500,3016,15552,17.66,1448,368,-275
-1576,3136,18712,17.66,2292,1090,572
-1860,4028,19896,17.75,612,1752,-55
-2580,3100,17472,17.66,-1759,2690,1147
-124,2948,15104,17.66,-1265,-347,1167
-396,3536,14492,17.57,1161,-75,485
-1876,3808,17704,17.66,1341,783,-1661
-1468,4584,20876,17.75,-1183,895,-3280
-764,3384,18448,17.71,-969,714,-1197
-664,3532,15968,17.61,-474,1184,-747
-188,3852,14332,17.71,316,500,935
280,5364,16020,17.71,1197,-684,762
-428,4352,19376,17.61,1185,-369,427
-2064,4164,19236,17.61,-1297,-1439,954
-1596,3468,15660,17.66,-1786,-362,167
-1248,3364,16796,17.57,-989,-1181,916
-812,4152,15184,17.57,878,937,246
-2928,3836,17876,17.71,1520,-1229,-746
-504,3392,20388,17.71,-646,-392,-2260
-1312,2840,16852,17.61,-669,190,-739
-1144,3304,15720,17.71,-852,460,-272
12,3708,15132,17.71,860,-787,851
-924,4248,18700,17.66,1841,676,565
-2248,4624,17476,17.66,-969,2041,-736
-2980,4568,18284,17.66,-2275,1372,2258
-2172,2560,17216,17.66,-1248,607,1727
308,3804,14928,17.71,1276,-567,1951
-728,4192,16600,17.61,1314,-505,-998
-476,3576,19204,17.8,2062,-801,-2792
-1056,4016,18980,17.71,-1747,1225,-1663
-1424,2864,17508,17.66,-1711,714,-179
-1032,3548,13852,17.66,1332,-970,132
-1556,4928,17700,17.66,1360,-71,-395
-1184,4336,18360,17.71,1122,1289,386
-2192,3508,19868,17.8,-1459,-495,197
-1564,4188,15320,17.66,-2355,-562,943
-804,4072,14080,17.75,150,-570,1328
-508,4048,15732,17.71,1977,354,-212
-184,4932,19508,17.71,2076,1056,-2097
-1948,3964,20020,17.71,-1995,-58,-1198
-540,2996,15292,17.66,-683,-377,-1404
-1384,3804,13508,17.66,-209,-751,-1077
-1560,4712,17704,17.75,1146,-56,-789
-1688,4396,18992,17.71,1736,-912,443
-2880,3236,18364,17.71,-1492,-1179,1278
-2240,3016,15972,17.75,-2058,-997,213
-1520,4080,15196,17.75,389,-1389,1514
-1044,4228,15584,17.66,1108,-682,996
-2520,4168,18244,17.75,51,-525,-513
-884,4444,19228,17.66,1584,104,-1455
-584,3564,17540,17.75,-574,812,-851
-1552,4780,14576,17.71,-853,1878,-416
28,4648,15212,17.8,888,835,333
-1492,4568,18340,17.71,840,304,850
-1820,4624,17472,17.71,-28,1387,-234
-3288,3196,18108,17.66,-1342,861,1187
-760,3968,15372,17.85,-1518,392,972
-420,3924,14592,17.66,1211,655,554
-788,4656,16984,17.75,1284,113,-854
-844,4376,19512,17.75,441,215,-1995
-1288,4764,18472,17.75,-1232,87,-433
-284,3736,15928,17.75,-1266,169,-496
-840,4092,14992,17.66,-100,1743,756
272,5704,18096,17.75,1667,627,60
-1120,5308,20048,17.66,2777,725,880
-2856,3316,19732,17.75,-442,-37,346
-1108,3888,15828,17.66,-2722,-1132,356
-1448,3892,15312,17.71,190,-2366,1131
-328,4792,16304,17.71,1110,-424,-116
-520,5036,18848,17.71,1039,-560,-1106
-1680,4852,20644,17.66,-1626,825,-1358
-880,2828,16268,17.75,-544,675,-1235
-1308,3556,14968,17.66,-870,3,819
-88,4872,14852,17.66,465,542,-61
-764,4752,17876,17.75,875,181,-601
-1408,5520,19884,17.71,-8,754,163
-1744,3300,17376,17.71,-456,555,2039
-1164,3588,16192,17.71,-2412,469,-344
-584,3916,15216,17.8,663,-120,738
-1864,4420,16104,17.71,1635,-1454,-621
-640,3980,20728,17.75,70,-320,-2278
-2168,3580,20244,17.75,-395,-639,-1075
-376,3884,15296,17.75,-668,-1544,-489
-796,3864,13684,17.75,-740,269,276
-1412,5436,18092,17.75,913,1036,27
-228,5280,19900,17.8,2283,623,436
-324,4092,20792,17.61,-1746,-157,976
-1236,3304,14628,17.71,-38,-1914,-167
-556,3732,15548,17.75,-933,-973,1501
-976,4360,14520,17.75,1515,-1124,555
-1020,4560,17876,17.75,649,-1808,-1226
-1316,3196,19816,17.71,-1106,-848,-3112
-1284,3284,17868,17.71,-350,115,-541
-832,3628,15560,17.8,-290,918,-625
-120,4644,14172,17.71,789,369,-457
-816,5180,19224,17.71,1765,629,581
-1652,4648,18664,17.71,462,1207,-411
-2396,4132,17940,17.75,-1204,2183,1035
-1520,3644,15480,17.66,-1343,-175,71
-460,4072,15192,17.75,582,136,1080
-672,4780,16592,17.89,1449,137,0
12,4424,18728,17.71,215,876,-1379
-1708,4296,19704,17.8,-1086,996,-1068
-672,4088,16732,17.75,-1279,-206,-1175
-1548,3928,14292,17.66,27,-334,533
-1192,5520,16176,17.8,1182,-304,57
-1060,5064,18488,17.71,793,-24,231
-3096,4300,20588,17.8,-1496,-267,209
-2204,3128,17708,17.75,-167,157,1028
-2196,3068,15352,17.75,-854,578,245
-1688,5384,17396,17.85,1223,-1610,618
-956,4648,16464,17.66,899,-2151,-1064
-1428,4256,20752,17.8,-947,-785,-1603
-212,4044,18844,17.61,-393,1602,-1645
-468,4568,15672,17.71,-1668,-484,-1621
-1444,4328,12996,17.8,-339,-249,-433
-1096,6268,17332,17.75,932,-611,-226
-408,4812,19888,17.75,1091,46,-32
-2076,3500,18800,17.85,-1929,-866,494
-1116,3544,15740,17.71,1105,-1341,-191
-2988,3332,17752,17.8,240,21,710
-1472,4884,14848,17.71,2592,-71,41
-1664,4540,17772,17.8,14,-1039,-608
1112,5192,17608,17.71,-2251,-450,-1365
-432,4232,16780,17.71,586,-531,-2122
-440,4188,15580,17.71,-811,696,-1438
560,5500,14828,17.8,-244,-112,26
-404,5484,17416,17.71,871,41,648
-1124,5540,17760,17.8,284,2242,-196
-1020,4932,20292,17.66,-2168,1467,1934
-768,3736,14672,17.75,-1501,-1137,1386
236,3472,14564,17.75,-214,-895,2112
496,3840,16304,17.85,2326,-407,-219
1244,4684,19564,17.85,804,-352,-2165
-1240,5268,20664,17.75,-756,1568,-1276
-2288,3128,15932,17.85,185,1468,-1195
-880,3372,14736,17.75,-9,-74,-833
-964,4512,16772,17.75,249,-760,433
-1052,4152,18244,17.75,1573,815,72
-1944,3892,18864,17.75,-1059,1336,-340
-2964,3656,16344,17.8,-754,1031,900
-1452,3952,13968,17.71,-1544,-205,844
-584,4228,15480,17.75,258,-309,706
-2236,4364,18020,17.75,-228,1200,-1285
-1272,4476,20132,17.75,-374,-747,-2150
-1548,3940,19064,17.66,525,991,-498
84,4472,16328,17.85,-399,-1153,-261
-2416,3844,13664,17.66,671,-699,773
-1416,5724,16240,17.71,1037,162,861
1952,6216,19516,17.89,915,1063,1811
2672,4284,19132,17.71,-477,-2957,3016
-2520,3664,14428,17.8,-2096,-975,509
-2052,3500,13632,17.71,690,-528,1633
-2832,4428,16516,17.8,1020,-453,461
-80,3740,18416,17.8,-20,-2234,-3254
380,4180,21700,17.8,-1399,856,562
536,4104,13464,17.89,-1369,304,-1315
-2216,3648,14092,17.8,198,494,440
28,5092,16088,17.85,785,1380,505
-452,5396,19324,17.75,2807,1134,843
-2172,3800,19176,17.85,-1700,-271,1217
-1456,2632,16644,17.8,-1540,-83,694
48,3592,13820,17.85,-1734,-1585,257
-1144,3840,14092,17.75,1965,-863,211
-1280,4216,20524,17.75,1037,-1495,-1208
-448,3992,23024,17.75,-2397,-985,-1482
132,2916,12956,17.8,-124,73,-1418
-484,3292,14200,17.8,-783,1218,-434
-468,4252,16476,17.89,-266,516,317
-780,4028,20816,17.8,2283,2001,1043
-2620,3264,18196,17.8,-2352,1557,314
-1200,2876,18256,17.8,-521,365,2348
-504,2520,16152,17.8,-1885,-22,880
-104,4024,14692,17.75,1693,-481,724
184,3200,18980,17.8,2121,-1142,-1143
492,3832,18068,17.75,53,-282,-4028
-372,3536,19056,17.75,-852,-12,-1022
940,3656,15420,17.75,-1807,-140,-156
156,3780,14880,17.85,117,-539,-373
-880,5012,18036,17.85,2257,1889,242
136,5308,18024,17.8,1769,1878,245
-892,3732,19428,17.8,-2953,-1137,2102
-684,2856,16472,17.8,-630,-1333,445
-224,3232,15436,17.71,-723,-899,1413
-264,4828,15648,17.85,1398,-1072,636
-1132,4536,21648,17.75,1039,-677,-1504
340,3608,18332,17.89,-1533,-38,-1843
-1004,3348,15324,17.75,-127,122,-712
-208,3684,15176,17.94,572,1033,-635
508,4960,15164,17.8,277,110,-80
236,4804,18616,17.85,2001,550,951
56,6692,17144,17.85,1513,3912,46
-568,3640,18608,17.85,-1535,1060,1826
844,4428,16380,17.8,-1455,452,525
452,4044,14108,17.85,-801,-295,318
-156,4652,16392,17.75,1416,-258,-833
1884,5476,19588,17.75,945,-863,-1977
-440,4944,18420,17.85,-1661,55,-1394
-372,2760,15224,17.85,-1621,-263,-1293
-1424,3608,14588,17.85,624,286,-565
-312,5196,17472,17.85,551,221,-73
-112,4356,19844,17.85,1432,320,952
-2420,4068,18212,17.75,-441,-682,452
-2004,2796,17432,17.75,-807,-203,1025
-456,3340,15572,17.75,-615,-112,776
844,4340,16084,17.85,1099,-683,115
-984,4088,17672,17.85,1737,595,-1819
-832,3588,20812,17.89,-2124,-868,-1961
396,2740,16824,17.75,-751,717,-586
-248,4288,14336,17.8,-1096,1079,-79
-116,4220,15080,17.8,488,719,220
-596,4412,19068,17.71,2021,233,1005
-400,3924,17968,17.8,-210,2160,248
-1660,3936,18172,17.8,-2094,1715,1718
-916,2892,16072,17.89,-688,-801,1119
428,3740,15220,17.89,269,-623,1762
564,4840,16528,17.8,1357,-889,379
1276,5148,19556,17.85,2545,-177,-986
-1276,3916,18144,17.8,-2639,1165,-1976
496,3632,15628,17.89,-1869,411,-353
-404,3508,14544,17.8,-628,-860,-95
-280,4176,17292,17.89,699,-434,-630
292,3952,18904,17.8,1202,-36,188
-2648,3796,18412,17.89,-149,170,-588
-1196,2628,16828,17.89,-250,-987,466
-2032,2576,16344,17.89,-1826,-402,545
-1356,3580,14488,17.89,1114,-214,-487
-720,4068,17716,17.8,1674,-965,-1745
-1072,4284,24176,17.89,-2432,-401,-251
2012,2548,17012,17.71,3109,1420,-680
224,3960,15284,17.89,39,-224,-550
0,4720,13416,17.89,629,40,310
-28,5340,16848,17.89,2145,1071,530
160,6784,17332,17.89,415,2590,268
-544,4888,20332,17.8,-2018,386,2403
-196,2812,17112,17.89,-1468,-481,960
680,4288,14500,17.89,-574,-1218,1535
428,5016,15332,17.89,1903,42,872
1856,4816,19056,17.89,2325,-990,-1084
-240,4160,19484,17.89,-1899,-24,-2783
-120,3556,15268,17.94,-1745,273,-1923
-1940,3816,14860,17.85,-660,-678,-650
-260,5496,16548,17.85,870,360,-598
-2652,3832,18720,17.89,1937,6,-163
-540,4144,19648,17.75,-2040,-691,937
-1016,3036,17888,17.75,-1125,-1187,-119
-412,3336,15684,17.85,-709,-1185,1317
684,4712,15004,17.85,1688,-254,186
-564,4112,19200,17.85,1447,-2039,-1154
-292,4320,19592,17.75,-1590,-337,-2238
312,3112,16508,17.8,-1289,169,-1266
-1216,3524,15544,17.8,-972,659,-530
52,4424,16372,17.8,847,1293,386
-1284,4644,18412,17.8,3005,229,441
-300,4144,19100,17.8,-1448,2919,-662
-1516,3408,17768,17.85,-1147,2069,641
-300,4196,14824,17.94,448,393,275
-928,4084,14000,17.85,-198,-361,501
-36,4388,17780,17.89,1076,-1134,-1062
596,4368,17872,17.89,-745,-2190,-2869
-20,3384,18900,17.99,-1225,-1708,-430
-28,3316,16616,17.8,-1127,-1075,-954
-452,3684,13948,17.89,560,-511,281
-120,4532,18416,17.89,2089,-375,400
-788,2904,18972,17.85,-1380,190,-1380
-1848,4176,18948,17.89,-1004,352,993
-672,2856,14512,17.94,-121,-900,526
556,3740,14904,17.94,327,-363,683
-80,3892,17236,17.94,1307,-712,-64
1288,3608,20088,17.89,-75,1832,-1940
716,3568,19752,17.8,-505,961,-1112
444,3748,15132,17.99,-1562,533,-1636
-544,4156,14332,17.85,644,-973,119
232,5104,17412,17.89,1248,-1315,465
712,4700,18348,17.94,1714,560,992
-924,4272,19380,17.85,-1338,-3318,1731
-1700,1980,16160,17.85,-183,-1813,595
-1488,2052,16484,17.89,-435,-1833,1027
372,3052,17044,17.94,2029,-2546,-784
1772,4188,19088,17.85,1798,-1036,-1678
216,3364,22032,17.85,-1652,970,-2350
340,1552,16356,17.94,-502,1190,-3135
-936,4508,14688,17.94,1572,-348,-941
-1460,5152,16144,17.89,1289,-1116,558
-836,3480,19216,17.99,2347,21,652
-1920,3424,19996,17.99,-2542,-491,550
-620,3740,17552,17.8,-1007,-1015,2320
128,3428,13588,17.89,-1374,-334,1657
368,4020,16156,17.8,974,271,806
680,3092,19660,17.89,1802,1126,-1891
1324,4380,20324,17.99,-806,-132,-2275
-28,3444,17028,17.94,-362,-336,-956
48,4252,14008,17.85,-604,499,-788
-512,4260,15180,17.85,1118,-143,948
-300,4744,18716,17.89,2474,2505,1509
-932,4404,16340,17.94,71,2357,565
-1348,3756,18148,17.89,-1589,1295,1508
12,3632,15532,17.85,-1339,-1052,1650
520,4376,14952,17.99,111,1716,1245
352,4276,17536,17.89,1129,1019,-558
560,3872,19236,17.89,654,77,-2140
-740,3916,20128,17.89,-1879,650,-1592
356,3424,16048,17.8,-1086,477,-2244
-584,3936,15104,17.94,116,118,-582
-384,5488,16880,17.75,1443,-62,-54
-1252,4232,19272,17.85,1620,607,501
-2180,3500,17960,17.85,-1178,194,-47
-2456,3188,17544,17.89,-482,-919,830
-1340,2596,15780,17.89,-856,215,857
-540,4036,15920,17.8,838,-1450,878
-1344,3092,17840,17.89,1216,-1258,-1428
220,4944,19980,17.99,-1079,-885,-3011
-448,3908,17796,17.89,-302,-185,-704
316,4904,13900,17.85,-909,1065,-520
72,4728,13228,17.85,1017,247,-87
-748,5272,18004,17.94,1054,1146,229
-468,4832,18260,17.94,1035,1961,1263
-1092,3892,18288,17.89,-1772,-88,2007
-300,2888,16232,17.99,-1038,370,97
184,4420,14996,17.8,427,924,610
452,4588,16428,17.99,1334,-927,-87
284,5196,18668,17.89,857,-680,-1850
96,4416,18404,17.94,-1812,83,-1544
292,3500,16636,17.85,-1214,649,-1455
-588,3768,14420,17.8,-104,434,-178
24,5324,16572,17.89,287,84,205
-760,4168,20164,17.89,1583,398,622
-1252,3500,19764,17.85,-1646,-707,779
-416,3632,16552,17.85,-784,-1209,648
-952,3620,14620,17.8,568,-315,1551
-484,4464,16676,17.89,2324,-830,801
-1208,5740,19440,17.89,1719,-117,467
-84,3720,19024,17.94,-1754,681,-2174
-744,2944,15756,17.94,-298,1067,-849
-564,4132,13536,17.85,-755,464,-843
-1008,4548,15704,17.85,-838,-28,-586
-1012,4892,18256,17.89,1465,-88,1046
-1140,4808,17584,17.8,340,1755,-363
-2064,2768,18288,17.85,-901,-252,-286
-680,3464,15480,17.94,-1162,783,-166
-1564,3900,13076,17.85,374,415,127
-1308,4736,15236,17.94,472,1,-70
-116,4792,20560,17.94,-388,-773,-44
-232,3800,19460,17.94,-2018,-618,-1799
92,3184,15172,17.85,778,-856,-1880
-1292,3588,14352,17.89,-1160,748,-308
-564,4908,16900,17.99,1143,163,241
-556,4872,17884,17.99,2363,-383,993
-2364,3864,19284,17.89,-1788,870,617
-1984,3196,16656,17.89,-1721,2656,1789
-980,2884,16044,17.94,-1594,1069,872
-1016,3976,15440,17.94,736,-907,1051
-508,4232,17840,17.94,526,-258,577
264,4616,20000,17.85,1029,-1374,-389
-312,2844,19828,17.94,-1382,-304,-1699
944,3212,14248,17.85,-731,-422,-2920
-960,3528,14504,17.94,-1296,1070,-430
-556,5236,15976,17.8,-65,1850,-105
-572,4156,18792,17.89,1443,655,836
-1932,3540,22024,17.99,-1554,689,1362
-1264,2632,17556,17.89,-48,385,1742
-220,1964,15072,17.99,-1069,1014,1203
168,3944,15628,17.89,919,1193,279
-536,4032,18136,17.89,1741,-452,-552
-764,3308,19524,17.94,759,-978,-2306
-436,2960,17728,17.89,-630,665,-1198
-300,3660,15108,17.94,-860,-511,-1444
-1348,4184,14152,17.94,-907,-225,-612
-2356,5860,18416,17.85,1095,1095,623
-224,5156,18284,17.94,2254,1573,1396
-2752,3496,18532,17.99,-1293,506,1609
-2280,2648,15496,17.89,-977,-443,2124
-1388,3280,15480,17.99,-1254,635,1603
-388,4696,14636,17.89,1159,-1234,446
-1880,3628,18356,17.89,911,-1949,-845
-984,4024,18432,17.89,-470,-963,-1608
464,3692,17232,17.89,-758,393,-610
1240,4444,17868,17.89,-763,-609,-689
-104,4456,14028,17.89,218,-893,225
204,5724,17412,17.99,692,965,519
-384,5012,18640,17.89,1466,1511,586
-3020,3384,19900,17.89,-1543,206,2009
-1456,2360,16300,17.89,-959,-1071,1872
-716,3272,15736,17.94,-949,-1133,1493
-180,4452,16284,17.94,1124,-1633,1220
-404,3800,18728,17.89,1496,-2067,-867
216,4676,19060,17.99,-196,-936,-2374
-360,3580,18408,17.99,-88,577,-1228
-668,3736,15196,17.89,-511,374,-915
-380,4612,14568,17.99,224,324,347
-800,5364,16900,17.89,630,1312,1206
-552,5120,18808,18.08,1006,652,1160
-2548,3652,20064,17.89,-2127,-233,1300
-1208,2548,16456,17.89,-963,-739,1883
-868,3044,15768,17.94,-776,221,1159
-1060,3860,15188,17.89,1022,-869,909
-1996,3300,16876,18.04,564,-656,205
-236,3832,20484,17.94,-2227,-755,-2057
-884,2436,17368,17.99,1353,829,-1284
-1188,3164,15004,17.99,-295,858,-1097
-1004,4284,13628,17.89,-228,747,1300
-716,5208,16632,17.94,40,232,1793
-896,4632,19176,18.04,1097,789,2243
-2028,3336,18720,18.04,-1229,1961,2629
-2072,3800,15736,17.99,-51,-308,4102
-900,2968,14408,17.99,-2004,1480,2785
-524,4612,16336,17.99,579,173,3421
-484,3656,18560,17.99,1242,118,807
208,4984,20000,17.99,1981,-655,-168
-1364,3380,18140,17.99,-448,1578,410
-508,3280,15612,17.94,-69,988,-82
-1424,4480,15004,17.89,353,857,806
-1148,4852,16600,18.04,477,1123,1793
-1388,4576,18748,17.94,-553,17,2842
-1444,3568,17348,18.04,-5,-359,3098
-1456,4092,18144,18.04,-874,2032,3698
-1540,3244,17288,18.04,-1877,1946,1209
-1144,4448,16916,18.04,-609,368,2622
-744,4404,15756,17.99,1212,-1249,510
-1156,4752,19044,17.99,1063,-565,-122
-1864,3708,18880,17.99,-190,-120,-1128
-732,3812,14712,18.08,637,241,-548
-2080,4980,15972,17.99,-1557,422,827
-2152,5096,17120,17.99,-123,736,2673
-1648,4644,17660,17.89,1111,967,4144
-2360,3992,17416,17.94,-377,1163,3036
-1688,4204,15796,18.04,-1086,1215,3071
-1348,3568,16136,18.04,-1018,1387,2808
-56,4800,15576,18.04,-514,804,1964
-560,4940,18256,17.94,186,-75,531
-928,4820,19644,18.08,779,562,820
-520,3720,17820,18.08,-331,255,-430
-1308,3876,16876,17.99,-872,248,-226
-1856,4096,16052,18.08,-1139,750,1014
-928,5576,16656,18.08,36,202,1543
-1852,5016,18020,17.99,544,422,2494
-588,4408,16944,17.99,994,-1581,3517
-1836,3448,19800,18.08,2,220,4599
-900,2560,15732,18.08,352,1543,1534
-396,3384,17648,18.13,468,905,1534
-24,3280,16468,18.13,1919,-1049,-1680
-1880,2996,19000,18.08,-121,-1810,-3190
-1592,3508,17524,18.08,-19,-1044,-1372
-1172,4360,16796,18.08,220,-611,-903
-136,4332,17732,17.99,-1162,948,200
-1248,4116,17256,18.13,-166,174,1163
-1124,3952,17072,18.04,-1327,607,1908
-216,3748,17572,17.99,-426,428,2024
-368,3340,17440,18.18,-1192,32,1468
108,3960,17420,18.08,-549,282,1449
-1232,3656,17500,18.08,-184,-136,1515
-164,3756,17000,18.08,-136,533,1478
-536,3764,17668,17.99,280,783,1089
-932,3940,16028,18.04,134,-143,1347
-296,4204,16568,18.08,-317,-489,1440
-668,3980,17876,18.18,-347,301,795
-560,4516,17952,18.08,-152,88,223
488,4796,18596,18.08,-313,-939,1158
-456,3900,16744,18.04,1165,-1032,-359
-232,4400,16712,18.13,-1045,-886,-887
-616,3532,17752,18.13,-528,2308,-453
-228,3776,16572,18.18,151,707,-1693
368,3908,18508,18.08,544,451,-530
1240,4736,16508,18.08,325,-1707,-642
676,5296,16784,18.13,-982,-241,111
856,4528,16576,18.13,730,-353,552
2300,4240,17408,18.13,605,576,825
112,3784,17624,17.99,239,482,-1777
-284,4648,16044,18.18,247,46,-845
-428,4520,17724,18.08,-689,1082,-551
-900,4224,18284,18.08,-9,-326,219
-1516,4096,16492,18.18,-269,-153,-121
-1232,4600,16736,18.13,-95,-948,152
-656,4260,17896,18.18,-427,1067,147
-476,4232,16280,18.04,-573,1636,-1128
-916,4192,17248,18.08,-385,-3,-803
-804,4396,16896,18.08,-264,500,159
-868,4168,17044,18.18,-682,1425,-464
-724,3900,17252,18.08,-24,-242,549
-696,3936,17956,18.04,91,349,466
-552,3984,17420,18.13,409,83,307
-876,4280,16436,18.13,1059,379,1160
500,4528,15688,18.04,74,-508,688
240,4500,16616,18.13,-300,-256,-332
-1784,3928,17368,18.08,1515,11,-489
-1980,4768,14660,18.08,175,3148,-4163
-1664,4740,18148,18.08,-1755,-644,1174
-456,4772,18940,18.22,-79,-1420,22
-1376,4200,16880,18.22,-889,-1597,1335
-1508,3880,16844,18.08,-245,-566,822
776,4396,18116,18.18,-371,-14,-191
-20,4096,17352,18.18,26,-239,-131
-392,4012,17104,18.13,397,-606,525
-104,4032,16960,18.13,167,-430,634
-804,3904,17408,18.18,540,-464,48
208,4416,16764,18.18,46,-237,-135
564,4588,17528,18.18,-362,-246,377
288,4064,17376,18.22,-107,136,204
520,4400,17372,18.08,-69,225,-198
640,4296,17124,18.18,251,-32,-9
872,4472,16728,18.08,-440,-367,573
56,4044,17104,18.18,-16,-210,629
-36,4208,16676,18.13,-15,-149,507
1128,4796,17336,18.13,173,-66,-102
320,4252,17644,18.13,-230,-645,192
20,4568,17112,18.27,-288,19,-137
-584,4220,17040,18.18,246,119,0
-160,4252,17188,18.22,262,-160,417
560,4172,16924,18.22,290,283,120
404,4372,17120,18.22,-217,7,-183
868,4424,17212,18.18,-110,-484,-129
560,4700,16568,18.18,134,289,-490
324,4224,16568,18.18,-198,-158,-461
1064,4292,17292,18.32,-112,123,-312
1232,4608,17584,18.22,520,-46,-422
212,4772,17940,18.18,960,197,-535
444,4492,17000,18.18,360,-270,425
496,4856,16768,18.13,91,169,368
-136,4676,16444,18.22,-133,-180,242
372,4836,16816,18.27,-83,619,-196
812,4948,17172,18.27,-27,792,-63
-96,4556,16892,18.27,23,376,132
176,4808,16836,18.22,51,128,196
668,4996,17508,18.32,456,12,-47
436,4616,16424,18.27,722,-64,-107
616,4924,16596,18.27,-1,166,107
196,4864,16588,18.27,-164,-5,-414
8,4948,16388,18.32,-430,371,-94
192,4936,17144,18.27,-128,22,-211
96,4840,16532,18.27,-153,188,-208
-124,4784,17012,18.22,-424,-79,208
204,4804,17452,18.22,-179,-118,276
332,4608,16856,18.37,221,-138,-18
136,4908,16816,18.22,-483,89,-31
44,4788,17072,18.22,-46,140,-317
304,4644,16948,18.18,-64,-82,241
608,4644,16708,18.18,275,80,-113
480,4608,17188,18.27,5,204,-299
380,4780,17140,18.32,-159,211,-119
16,4408,16876,18.18,179,-48,-417
-452,4584,16340,18.27,1,105,-569
-28,4764,17148,18.18,-634,-105,-346
232,4348,17260,18.13,-570,-420,-755
256,4452,16824,18.41,-310,641,-1040
180,4548,17104,18.27,-447,202,-931
92,4184,17308,18.32,-109,36,-1035
768,4236,17188,18.32,-12,-136,-745
720,4380,17492,18.32,-659,-566,-223
408,4824,17516,18.27,-90,-64,-140
624,4196,15784,18.27,37,120,239
16,3924,16992,18.37,-1410,433,325
-412,3720,17108,18.37,-574,706,454
352,3648,16360,18.27,-445,745,-339
568,4284,17724,18.22,-396,639,-344
-164,3908,16824,18.32,-460,-111,711
-376,3904,17424,18.27,-155,206,-57
-548,3628,17616,18.27,182,359,-86
324,3796,16652,18.37,71,21,-151
432,3860,17668,18.27,299,647,-241
-356,3648,16876,18.32,463,47,-151
164,3812,17192,18.32,-41,280,51
152,3772,17744,18.32,178,38,-280
-300,3752,16952,18.37,346,83,-207
-524,3764,16780,18.27,-122,32,79
84,4204,17464,18.41,114,219,-343
360,3992,17376,18.41,189,188,-37
-88,4100,17252,18.37,56,92,228
168,4076,17188,18.27,-38,-26,420
-280,3664,17192,18.37,-189,190,121
-100,3856,16952,18.32,-313,386,-78
-128,4096,18016,18.41,-64,121,147
92,3896,16844,18.46,20,110,149
156,3968,17244,18.37,250,228,-177
-60,3852,17144,18.41,120,-11,-465
-4,4356,16440,18.32,25,527,-416
-776,4056,16648,18.27,-160,121,-347
-44,4068,17092,18.32,-134,116,-59
-680,4104,17160,18.41,-235,161,-124
-420,4056,17052,18.37,-178,254,-28
-92,4008,17336,18.46,-22,23,0
-244,4080,16916,18.51,189,24,16
-316,3852,16920,18.41,-192,110,-143
-676,4144,16964,18.37,-499,142,334
-268,3864,17040,18.37,52,-36,246
96,3952,17364,18.32,-135,42,-21
-988,3716,17680,18.41,225,-304,-109
-344,3924,16632,18.46,262,-64,-301
-384,4028,17340,18.46,374,-35,-240
-112,4012,17160,18.55,-18,53,-65
-488,4108,16876,18.41,12,-241,-21
384,4072,16688,18.37,76,270,47
16,4144,16856,18.41,-191,50,-273
-448,4392,17424,18.41,674,-498,-571
-244,4188,17300,18.37,510,462,-575
-68,4396,16604,18.46,-316,-10,251
228,4696,17224,18.41,-70,510,51
36,4136,17016,18.51,555,223,-379
-228,4332,16904,18.46,-104,-27,-99
-92,4444,17204,18.41,-32,-55,-87
236,4416,16764,18.51,183,245,-19
72,4312,16656,18.46,-110,179,-261
-628,4460,16904,18.41,-201,157,-260
24,4468,17776,18.51,20,-113,-95
148,4396,17384,18.46,160,-254,-170
-208,4544,17072,18.55,144,-186,-162
16,4620,16932,18.41,397,-300,-250
20,4668,16988,18.41,297,30,-309
-296,4700,16680,18.37,-204,-275,26
-136,4564,17320,18.46,-265,184,-105
-36,4340,17452,18.41,-96,105,-73
164,4520,17108,18.41,20,100,-237
72,4168,16848,18.46,-335,-259,-224
-56,4452,17404,18.37,-297,69,-339
-188,4396,17160,18.37,-210,-158,-270
52,4496,16760,18.51,-186,-94,53
120,4320,16900,18.46,-45,20,79
276,4392,16904,18.51,25,271,-86
80,4440,17028,18.41,6,222,104
124,4332,16944,18.55,-126,169,16
76,4280,17052,18.46,-65,338,-294
180,4232,17208,18.46,-46,210,-219
-176,4136,17232,18.51,-189,37,-171
-72,4216,17232,18.51,-46,-53,-142
164,4344,17092,18.46,-62,8,-240
52,4184,17148,18.46,-240,43,-351
72,4116,17056,18.41,-105,138,-300
204,4444,17400,18.46,-121,61,-95
528,4456,17256,18.55,-141,228,-165
232,4192,17140,18.51,25,66,-199
200,4276,16976,18.55,66,74,-210
244,4212,17068,18.55,34,-24,-268
296,4240,16896,18.51,19,32,-557
-168,4028,17208,18.55,2,33,-609
252,4484,17284,18.55,-20,197,-629
-348,4464,17072,18.51,29,-92,-225
8,4472,17292,18.55,85,-10,-86
-184,4400,16880,18.46,-64,-321,204
244,4412,16988,18.51,-149,-177,219
280,4444,17052,18.46,60,57,119
688,4420,17040,18.46,164,67,-92
204,4204,16720,18.41,-220,-58,-349
932,4152,16904,18.55,-14,-79,-521
492,4488,17104,18.6,-172,60,-608
436,4328,17428,18.6,-88,-177,-346
376,4204,17140,18.46,-231,-224,-360
436,4216,17252,18.6,-115,-67,-251
180,4268,17392,18.65,-150,154,-95
768,4308,16916,18.6,-172,228,-153
268,4096,17564,18.51,51,242,21
348,4088,16856,18.65,-60,114,-12
148,4140,17104,18.55,-48,-165,99
256,4272,17044,18.51,-55,312,-594
868,4252,17308,18.65,144,145,-78
384,4252,17164,18.55,35,104,88
472,4204,16964,18.51,-23,70,34
380,4108,17388,18.6,111,117,87
628,4324,16960,18.65,1,13,93
856,4320,16864,18.55,-30,124,-212
420,4484,16996,18.51,19,234,102
724,4200,16888,18.55,-39,104,6
816,4416,16944,18.51,14,173,99
468,4324,17588,18.51,79,69,-73
480,4300,16852,18.6,77,150,-90
488,4436,17308,18.41,-42,139,-152
312,4276,16884,18.55,-89,98,-133
404,4388,16804,18.55,-134,81,-112
464,4244,17128,18.51,-172,170,-171
284,4224,16876,18.65,-313,40,-327
196,4472,17644,18.46,-191,-223,86
392,4308,17036,18.6,307,81,-213
184,4240,16744,18.65,97,-90,-147
388,4304,16972,18.6,-173,79,-255
236,4392,17308,18.51,-112,-96,129
728,4496,17036,18.55,-47,59,-82
584,4216,16660,18.55,-139,-11,-124
-28,4156,17240,18.55,261,134,-102
692,4552,16260,18.51,-284,255,-254
-8,4080,17584,18.55,-60,314,-145
-736,4188,16812,18.55,-322,294,-678
48,4256,17436,18.6,12,201,-234
-260,4296,17100,18.6,-95,65,-330
332,4408,17060,18.6,-67,329,-840
-552,4168,17536,18.69,-19,132,-109
-352,4260,16812,18.55,-57,-166,-380
132,4388,17444,18.6,-285,46,-151
324,4448,17592,18.6,178,-63,9
-332,4368,17044,18.65,242,94,113
508,4292,16492,18.69,-75,173,281
680,4720,16764,18.6,-633,-96,31
248,3896,17644,18.55,442,115,-73
192,4280,16668,18.6,-171,-103,-10
-48,4220,17216,18.6,3,-36,-186
220,4176,16728,18.65,233,191,63
-192,4092,16840,18.6,-115,206,-239
232,4248,17008,18.65,-181,2,-11
132,4328,17180,18.55,-299,-25,-128
-308,4220,17204,18.6,106,150,-118
252,4240,17012,18.65,-151,121,-192
-120,4256,17352,18.65,-189,97,-148
612,4652,17388,18.6,41,226,132
-12,4328,17308,18.69,47,193,-57
132,4052,16860,18.65,-136,62,74
208,4084,17164,18.55,110,-222,45
-28,4156,16740,18.6,-49,113,-173
-44,4204,17176,18.65,-28,-21,-238
-200,4080,17256,18.55,157,-14,-92
240,4284,17060,18.6,308,63,-125
104,4244,17088,18.69,270,344,-255
148,4260,16676,18.65,-74,60,-116
412,4144,16984,18.6,-383,-102,-267
-248,4516,17476,18.55,-15,97,-11
-96,4516,16920,18.6,187,367,107
-80,4348,16884,18.6,129,155,230
376,4204,16880,18.74,181,206,125
156,4284,17232,18.65,-65,176,-226
424,4608,17632,18.6,-136,39,-146
364,4412,17232,18.69,98,104,-518
28,4352,17128,18.46,54,181,-716
368,4576,16660,18.65,-184,29,-771
-612,4448,17700,18.6,-453,56,-580
-336,4268,17440,18.55,-275,-71,-157
28,4336,16904,18.6,-54,-42,35
-212,4132,17308,18.6,-63,49,197
376,4288,17436,18.51,12,17,-46
132,4312,17008,18.65,-108,-93,-237
-136,4276,17500,18.55,135,-213,-193
164,4360,17028,18.69,144,-6,-276
-144,4320,16656,18.65,-3,-142,-229
12,4596,17232,18.65,-96,-13,-75
212,4456,16760,18.6,130,397,-280
232,4376,17052,18.65,-181,300,-307
12,4396,17344,18.69,-503,134,-215
204,4616,16944,18.6,-103,186,-231
-256,4244,17300,18.65,-282,-252,-113
44,4364,17164,18.69,-84,79,-47
244,4348,17168,18.69,-29,98,-53
108,4320,17172,18.55,-97,184,18
216,4052,17108,18.65,32,139,47
0,4040,16992,18.6,43,-127,9
168,4284,17124,18.6,-119,64,-84
328,4460,17332,18.65,276,44,-130
-300,4176,16840,18.65,397,52,-217
-272,4244,16800,18.69,45,65,-229
16,4332,16932,18.74,-134,33,-168
-84,4356,17384,18.6,-369,33,-270
316,4556,17376,18.6,-108,-51,-300
-256,4376,17068,18.65,241,180,-291
-284,4412,17060,18.65,-250,-265,-95
448,4628,17368,18.69,111,201,66
-172,4316,16924,18.69,149,105,186
236,4264,16908,18.6,-25,101,326
468,4344,17324,18.65,-261,108,-43
-68,4244,17144,18.65,-94,19,-208
356,4368,16776,18.65,87,156,-400
-48,4172,17048,18.6,-173,64,-360
28,4348,17072,18.6,-115,-14,-285
140,4276,17004,18.69,-168,35,-351
-420,4424,17432,18.65,89,50,-28
-20,4356,16940,18.74,219,46,36
196,4404,16604,18.65,-188,106,90
348,4392,17108,18.69,-190,357,-266
-16,4240,17284,18.69,-266,127,-86
244,4436,17156,18.65,130,214,-164
288,4356,17484,18.74,139,108,-216
344,4312,16768,18.69,322,569,-485
-1128,3912,16676,18.69,171,-133,88
472,4540,16976,18.65,-453,107,-210
152,4408,17068,18.74,-8,326,-1234
128,4380,17468,18.69,-78,153,83
920,4444,16432,18.74,-158,211,-307
164,4240,17520,18.65,-1285,-212,-170
480,3852,18012,18.69,-189,-107,-306
-84,3936,17416,18.65,137,102,-502
-664,3908,17360,18.84,329,-187,-399
288,4216,17072,18.74,292,-96,-494
16,4416,17180,18.74,453,166,-693
-564,4216,16908,18.6,341,562,-668
-428,4424,16892,18.84,61,146,-257
-260,4576,17140,18.74,113,72,-128
-236,4228,16820,18.79,85,184,-325
-268,4516,17312,18.74,-265,-7,-154
20,4460,16884,18.74,12,137,-235
-376,4264,16564,18.79,-325,164,-396
-300,4464,17168,18.69,-169,122,-28
-488,4124,17108,18.74,-158,136,-152
-136,4340,17488,18.74,-266,-173,222
132,4096,17668,18.79,99,-15,86
-92,4060,16872,18.65,-90,-229,60
16,4280,16968,18.74,-216,85,-87
-4,4204,16728,18.69,62,243,-155
-368,4380,17412,18.69,-36,72,-16
564,4488,17272,18.74,224,543,323
-8,4152,17060,18.79,267,266,-162
48,4080,16656,18.79,-132,512,-138
416,4264,17484,18.74,-718,-376,-161
-524,4276,17584,18.88,-224,-895,-203
-40,4140,17340,18.74,259,-483,-44
132,4100,16720,18.84,180,-301,-242
284,4328,17236,18.88,-74,-119,-367
452,4152,16796,18.74,-51,166,-51
-332,4336,16928,18.74,261,152,-314
52,4048,16620,18.69,-276,194,-604
-704,4180,16696,18.74,-449,278,-104
-192,4312,17312,18.74,-161,367,333
576,4252,17156,18.74,39,454,160
-36,4108,17664,18.65,141,316,47
28,3980,16984,18.79,69,138,42
-368,4260,17296,18.74,-182,28,-253
-520,4052,17104,18.79,187,-90,-150
-220,4120,17120,18.79,68,29,-428
220,4508,17000,18.74,136,235,-651
-632,4572,16708,18.74,-41,166,-413
116,4120,16968,18.79,430,409,-80
636,4332,16824,18.84,-253,514,-181
-272,4368,17552,18.79,-547,406,-138
-336,4312,17420,18.74,-53,292,334
-48,4124,17768,18.79,557,199,724
-348,3904,16416,18.74,391,574,50
-524,3908,17104,18.74,-137,254,-316
-152,4320,17544,18.88,-329,-24,12
-20,4364,16944,18.84,79,99,-58
-372,4084,17088,18.79,-11,-21,-337
-864,4224,17076,18.84,-325,-29,-264
-932,4084,16824,18.74,-202,-150,68
-388,4224,17440,18.79,-40,-91,-29
-436,4252,17076,18.84,32,119,-176
-412,4092,16732,18.79,-157,252,-221
-416,4128,16752,18.84,-218,110,-114
-288,4140,17128,18.79,-140,276,-391
-872,4452,16764,18.88,-141,-50,-246
-568,4168,16732,18.84,-78,107,-474
-984,4364,16712,18.98,-531,-361,-1
-364,4252,17704,18.84,-185,-61,-129
-372,4248,17384,18.79,33,188,-165
-608,3932,16752,18.84,-24,287,-94
-740,4132,17552,18.79,97,-130,458
-96,4144,17140,18.79,83,-316,396
-780,4016,16836,18.84,104,-45,123
456,4292,17292,18.88,858,491,458
172,4752,17076,18.84,-130,-50,441
-348,4752,16620,18.88,-426,629,391
284,4756,16484,18.93,-679,652,687
40,4604,17732,18.79,-138,759,278
-168,5088,18160,18.84,147,32,877
-628,4944,17700,18.84,256,-21,660
-1548,3628,16128,18.84,414,216,664
-812,4804,16548,18.88,-106,198,650
-104,4196,16164,18.88,-381,315,1162
-556,4432,15964,18.84,-55,164,1331
-1284,4240,16720,18.88,-1349,964,211
-1600,4472,17320,18.84,-227,754,650
-512,5196,17072,18.79,-401,269,254
-1548,4500,17264,18.84,256,-116,-816
-52,4884,19352,18.88,302,55,-302
-608,3656,17704,18.84,916,-597,-266
-1008,4208,15640,18.88,1180,-608,-323
596,5164,15660,18.93,-122,-111,136
444,5000,14360,18.88,424,-479,252
-1484,5424,15572,18.93,91,29,-1028
-1448,5848,17028,18.88,-1539,719,968
-2112,3900,20112,18.84,-2303,1378,794
-2100,3496,16496,18.88,-954,-6,-30
-1228,3996,15580,19.02,-1147,250,307
1916,4728,14488,18.88,-260,-1400,1253
-1124,5092,14376,18.93,2116,-415,744
-976,6964,19500,18.79,4427,-1338,530
-4184,3400,21404,18.84,-2196,1128,-589
-904,4416,19008,18.88,-2156,-2005,2507
-2568,2524,15500,18.84,1048,844,1597
-4604,2624,21076,18.84,4690,-1950,3353
-7440,2604,22588,18.88,422,-4309,3142
-4868,2012,14308,18.93,-1977,-936,-1333
-3472,2856,14820,18.84,-215,194,154
-4976,3456,13532,18.88,1950,75,-324
140,4904,18332,18.93,-818,583,-2798
980,4644,20720,18.98,-181,2248,-2036
724,3736,12424,18.84,-667,913,-691
-472,4024,9788,18.88,1058,-749,441
-1980,4300,19896,18.84,2447,-1820,905
-1844,4528,21484,18.88,-929,948,-324
400,4180,17536,18.93,-2003,1811,-1181
356,3976,14164,18.84,-1879,2098,-604
1460,4576,11900,18.79,1104,1341,-119
2188,5400,19468,18.84,1523,-570,763
-1416,5016,21992,18.84,-3140,1206,1023
-148,2708,15412,18.84,-1079,-659,472
-1820,3136,13812,18.84,557,-413,-1051
-468,4340,15036,18.84,1024,-593,-596
-652,5716,19976,18.84,1962,-527,684
-3432,3212,22756,18.88,-1580,-1464,210
-2984,1256,16656,18.84,-1613,-752,-659
-1920,2824,14484,18.79,-1053,607,-1654
-1556,4216,14100,18.84,1452,613,-726
-1016,4536,20032,18.88,2288,-1009,-388
-2100,5104,20408,18.74,-1908,1146,489
-2268,2208,16080,18.69,685,-955,78
-2388,3176,14520,18.79,481,217,-1090
1536,5012,14160,18.74,-404,1248,-1022
-1876,4532,17068,18.88,1547,-123,-616
-2016,4872,19640,18.84,-1549,1648,220
2296,4284,15876,18.79,-2507,389,-194
2832,5000,14180,18.84,-4529,1702,2408
1884,5056,13744,18.88,2182,-30,790
-1580,3252,19156,18.74,2685,-1247,-1444
-2168,3648,21500,18.79,-2347,-929,-1200
-1660,3660,16376,18.84,-635,1270,-2001
1044,3956,13088,18.79,-954,503,367
264,4480,14492,18.79,1624,-1195,1302
-980,4484,18240,18.74,1763,200,596
-5060,3108,19108,18.69,-2249,1697,-1021
-564,3540,18472,18.84,-2431,827,310
2016,3604,14268,18.74,34,748,-1252
1832,4176,12380,18.79,2351,1758,1134
-2012,3040,19296,18.84,1385,-2033,-383
-4352,3672,21864,18.79,-1301,-266,-2807
-76,3844,17624,18.74,-1766,233,-74
1612,3860,15228,18.69,-1166,80,-201
584,4464,13804,18.74,473,-115,946
-884,3860,18740,18.79,2092,-264,-232
-3832,4464,22024,18.74,-1165,792,-183
-284,3744,15704,18.69,-1487,1079,1396
1064,3756,15580,18.84,-2042,1118,972
1312,3820,12860,18.74,1348,194,-312
560,4372,19044,18.84,1038,-950,-1188
-3684,2624,21960,18.79,-2396,2666,-1142
-2760,2492,16580,18.74,-264,151,-1508
-2996,3048,13964,18.79,577,364,-1485
-276,4632,16360,18.74,764,-276,-253
-3856,5088,20552,18.79,2018,105,-457
-788,3724,20820,18.74,-138,-639,1796
-1840,3288,16600,18.74,-1716,-1452,2204
-3664,3404,14256,18.74,-114,691,-370
-2504,3604,13528,18.79,2862,-1082,-113
-20,4516,19212,18.84,672,-443,-481
1976,5756,20172,18.88,-786,-566,-947
-392,3920,13876,18.84,-1957,-697,999
-4032,3296,14308,18.74,83,-634,1974
-1516,4660,16216,18.88,1882,-297,60
-248,6460,18060,18.74,226,3037,2237
412,3916,17724,18.79,-143,875,1390
-988,3540,16492,18.69,-1912,-514,1725
-1304,2408,20056,18.74,835,-581,-356
-1908,2364,17392,18.79,-24,-196,42
-736,3260,22132,18.84,-2430,121,-1941
-284,2972,19832,18.74,-763,333,-1674
368,4148,14192,18.74,-837,-187,-937
164,4080,12116,18.65,144,26,1113
400,4700,19216,18.79,1507,293,1446
-1424,3984,24744,18.74,-1110,1772,228
-1500,2472,17712,18.79,-2103,1299,2250
2468,4052,15136,18.84,-381,175,2293
1044,3584,13748,18.79,1461,-751,1474
-2036,2976,18708,18.84,2415,-1168,-1604
-476,4088,21024,18.84,1088,1553,-3501
-88,3900,18732,18.69,-876,-27,-2419
1760,4492,13672,18.74,-602,1043,-537
1932,4892,13772,18.84,512,476,1564
-1148,4788,20148,18.69,3036,269,1861
-3876,3376,19684,18.84,253,439,1689
-2236,3148,18480,18.84,-3359,1379,867
548,3672,13732,18.84,265,-974,1569
28,3904,13628,18.84,453,1230,186
3024,4728,17424,18.88,383,-1190,-2122
4544,6040,23924,18.74,-2031,-685,61
-72,2916,16204,18.79,-177,-274,-444
-2064,3448,13128,18.84,528,171,-81
-224,4800,13944,18.79,525,36,887
-2532,4736,21324,18.74,1329,-698,2018
-1980,3080,22172,18.79,-1032,-324,1136
-2144,3012,14968,18.84,-1999,-256,632
-1236,3280,14232,18.79,-585,1258,1747
572,4248,15776,18.74,1531,-69,1738
1596,4984,20056,18.84,1675,-639,704
548,4428,20316,18.79,-1195,446,684
-4044,2120,16056,18.84,-641,1011,2239
-2592,2720,14404,18.79,-999,2102,1956
-272,5136,17352,18.74,828,972,2588
928,5556,20380,18.69,1294,1652,3968
-3296,2752,22108,18.84,-1862,-243,3826
-5364,1384,16292,18.79,-2088,905,1645
-3804,2444,15980,18.74,-1503,130,1488
-64,3904,16240,18.69,144,846,1195
-1624,3028,20228,18.74,1091,-613,-2558
-1948,4088,23084,18.69,-915,325,-1131
-1416,2172,13788,18.84,74,2947,-587
-3008,2944,14480,18.74,-1808,1788,-1209
-1472,4280,15744,18.79,1291,288,-136
1212,5040,20044,18.74,2285,99,804
-2288,2920,22496,18.69,-954,-1812,2370
-304,3048,17752,18.65,-649,345,1178
-552,2912,16196,18.79,-972,-15,37
940,4280,15060,18.74,752,-614,425
-584,4892,16832,18.79,2085,-1187,1272
-1716,3972,22712,18.84,-1139,276,-1551
-3608,2956,18884,18.79,-912,612,-305
-332,3252,14468,18.84,-455,-1127,800
-104,4296,12772,18.79,159,275,2486
232,4820,15980,18.93,1304,269,2918
436,5048,19780,18.79,-755,1137,2431
-1580,3444,18588,18.74,-350,191,5781
656,3340,16128,18.79,-1959,1087,3705
2140,3552,13772,18.65,396,-372,4112
1196,4268,16648,18.74,1758,-265,1953
3108,4384,18360,18.69,296,148,-535
1344,4840,19620,18.79,28,1396,-877
1592,3456,16376,18.74,181,1242,548
-1744,2996,13284,18.69,210,581,2260
592,5104,16088,18.69,856,380,1907
-1224,4836,20208,18.84,2795,-635,4050
-16,3700,20916,18.69,-767,-557,3246
-2200,2324,16532,18.74,-628,175,1688
-1184,3248,14420,18.74,993,302,2205
-332,4804,15152,18.79,1295,614,1430
-2568,4248,19104,18.69,1253,-1395,517
-908,4164,17800,18.74,-2139,-257,-337
-4844,1840,17684,18.69,-873,357,-1116
-3332,3224,15240,18.65,-1294,1202,266
-1008,4068,16168,18.69,993,588,1631
1532,4988,16800,18.74,1533,620,3573
-1700,4484,19380,18.79,-915,908,2903
-3244,3236,16956,18.65,-961,965,1710
-856,3376,15696,18.79,-1744,2282,86
628,4364,12916,18.74,-368,795,-11
-1564,4876,19016,18.65,266,132,-1304
-3752,3696,18864,18.79,-1043,427,-1492
-4388,1512,17784,18.84,270,-522,-1152
-2692,2792,16156,18.69,-867,766,-1730
-488,4432,14712,18.74,-374,164,107
-1876,4588,17732,18.69,1393,860,94
-3680,4980,21464,18.84,-523,1826,145
-400,2796,17236,18.79,-736,-51,948
1212,3896,13624,18.65,454,80,2001
788,4144,13628,18.69,441,171,1161
-1628,4088,18120,18.65,677,-292,-708
-2260,4248,22684,18.6,-589,115,-1569
476,2940,19520,18.74,675,-320,-1580
1580,4464,13096,18.69,-655,-42,-1791
2240,5384,13272,18.74,-9,838,602
528,4748,16704,18.55,1794,-296,1132
-468,3924,20736,18.6,-1730,97,2596
-1328,3816,17868,18.65,-1319,455,310
316,3828,16480,18.79,-1148,215,381
288,4724,14420,18.74,1207,554,-269
-2096,4408,19580,18.79,1555,-1175,-455
-2380,4676,21772,18.65,-1173,57,-1544
-36,4320,15752,18.65,-214,413,-966
1588,4224,13884,18.69,-815,271,-652
2096,4828,13092,18.65,-118,-88,1324
1148,5508,20324,18.65,2565,321,841
1180,5972,19812,18.65,356,2791,-858
2372,4544,16440,18.6,-1381,2218,-1253
2752,4344,16132,18.6,-1421,919,238
636,4156,13516,18.65,330,-786,1656
-2236,4492,17868,18.51,1677,-839,45
-3616,3728,21584,18.65,-39,-989,-2885
624,3984,19596,18.55,-220,388,-2460
276,4560,14028,18.69,54,1291,-781
1676,4928,13588,18.65,528,-780,1670
-1116,5196,17320,18.55,1588,-1637,1020
796,5940,19680,18.6,-1587,1848,867
960,4404,15636,18.55,-962,1615,-577
448,3724,15656,18.6,-1177,9,286
484,4536,13996,18.65,1226,-301,1270
496,5556,17284,18.6,1706,-434,32
1936,5520,19900,18.65,823,-556,-2126
2624,5708,17824,18.51,-950,409,-1735
2004,5132,16688,18.51,-1146,853,-1720
-988,4200,13640,18.55,38,329,44
-1608,5260,18500,18.51,947,-233,551
-156,5344,17512,18.46,1161,2230,1287
1208,4504,18608,18.41,-25,1041,32
-792,3140,15492,18.51,-1484,-230,1123
1408,4568,14860,18.6,252,-1177,1323
1524,5060,18064,18.55,2147,-88,-972
-556,4416,21912,18.6,589,-332,-2646
-532,4252,18036,18.55,-1050,246,-1079
-1568,3140,15556,18.6,-496,-1647,-246
-3096,3548,14040,18.46,-7,-23,18
-1556,5316,19488,18.51,1054,875,-963
1328,5736,18624,18.51,-553,3062,-1611
-1692,4404,16820,18.46,-2368,1108,-1205
1892,4504,14836,18.51,-966,345,662
1928,4192,12896,18.55,1035,2791,251
1148,4672,17436,18.51,659,372,-731
-2272,3356,21440,18.46,-1053,-1630,-2104
-392,3884,19512,18.51,-638,-200,-1026
2708,4624,15800,18.46,-438,439,-1087
2924,4616,13160,18.41,465,-1159,924
-420,4632,19624,18.46,2520,-466,-96
-3400,4088,22628,18.46,-1613,1736,-761
-1256,3588,17264,18.51,-2425,1460,-527
1280,3644,15096,18.46,-1686,1364,-507
900,3780,13252,18.6,374,667,-733
-980,5004,18288,18.41,1563,-1332,-400
-724,4264,21712,18.46,-62,-180,-2156
-1468,3272,18072,18.46,-999,85,-1055
1048,4252,13928,18.55,-1411,-1404,-285
1192,4860,13356,18.51,1107,-263,524
1668,5800,19228,18.46,2003,383,339
5128,6984,17272,18.51,145,1493,-1521
2380,5644,16368,18.46,-873,608,1273
-520,3988,15252,18.46,-1890,-47,527
2116,4332,13596,18.46,756,-645,1405
1208,4476,15656,18.41,1562,-1164,81
-640,4016,20796,18.46,205,-2338,-6167
-268,3816,19684,18.32,-988,1413,-1955
3016,4700,13348,18.46,-1226,1076,402
-12,4440,13464,18.41,1021,-386,1506
1660,5872,14904,18.55,2023,921,260
3936,5748,18596,18.46,580,2215,1699
3200,5152,19276,18.51,9,258,2335
1108,3448,16484,18.46,-1017,944,537
2200,4100,14408,18.51,1123,-1225,1749
104,4576,14064,18.46,1487,-1214,-414
2476,4968,18764,18.51,-683,-705,-3181
4584,5804,22156,18.46,-1467,579,-2602
1512,3552,16032,18.46,-1795,-891,-605
-2100,3120,13012,18.51,1120,-13,530
648,5660,14860,18.37,1695,-1019,-363
1288,5676,18568,18.41,1988,1518,-978
788,4164,21176,18.46,139,-329,785
232,3324,14332,18.41,-1511,-92,-88
788,4128,12608,18.37,1275,60,1018
-164,4308,13796,18.41,1642,-130,-85
2440,6124,18448,18.46,2328,-1353,-2105
1176,4712,19968,18.41,-756,-180,-1036
520,3632,14460,18.46,-954,-621,439
-596,2860,13916,18.46,-376,245,1103
-1016,4588,15120,18.41,-485,-341,987
-68,5460,19416,18.46,2047,-188,2768
-488,4428,21872,18.46,773,-949,3035
-1044,2176,15232,18.51,-1492,169,-2
528,3604,14832,18.27,-480,-1479,1144
-1048,4524,16044,18.46,1062,-1378,253
740,5508,19720,18.41,1457,-1100,-580
-984,4292,21352,18.37,-1627,-467,-537
-704,2352,14612,18.37,-866,1185,-1710
-428,3144,14384,18.32,-602,934,-1929
252,5288,16720,18.37,964,1357,-330
-120,4300,19832,18.46,1654,122,514
-1564,4252,21900,18.41,-1589,-179,1709
-2828,3232,15780,18.37,-1509,244,1555
-1076,2436,15096,18.46,-1206,1858,139
-672,4064,14740,18.41,1133,1887,624
-452,4784,21516,18.37,-340,-2542,2407
-1960,3652,22164,18.37,-1360,-261,-7
-868,2204,14988,18.37,34,21,-1657
2640,4304,15580,18.46,-466,-1623,-76
-148,4508,15388,18.41,2570,-861,637
-524,4572,20220,18.32,2996,371,356
-1268,5568,21184,18.37,-266,313,2099
-548,3088,15728,18.41,-1913,700,-1716
1012,3924,16404,18.41,-1571,379,1519
48,4728,14744,18.37,3047,1958,-563
1600,5744,20972,18.41,1444,-380,432
3864,6432,20624,18.32,-1651,-602,-589
1216,3756,14924,18.37,-1200,-586,-1118
-1984,3408,14448,18.32,483,864,-192
-516,5048,16108,18.41,1170,337,-332
-2964,5136,20916,18.37,971,426,1138
-1820,3540,22936,18.27,499,-1540,1294
-2584,3328,15408,18.32,-2714,245,510
-2156,3372,13992,18.37,-537,67,135
1524,5508,12384,18.37,2280,286,22
2312,5432,16884,18.37,859,-1265,938
-948,5164,21796,18.32,-586,-347,594
-3448,3240,13792,18.37,-1532,1514,-1405
40,3936,13808,18.32,-808,833,-1771
-4,5924,15364,18.41,1735,455,-797
-128,5572,20508,18.37,3966,959,2195
-456,4660,21508,18.37,53,-3938,3121
-4036,1988,15720,18.32,-2558,-490,-780
-1304,3988,17124,18.41,-428,-606,-831
724,4716,15576,18.37,2891,-217,-1214
4784,5108,15648,18.37,502,-496,-3150
5888,5852,18644,18.37,-1640,1143,-1468
2368,5044,15592,18.32,-1450,-299,275
-860,4060,13992,18.27,756,-1896,2362
-1168,5232,17992,18.27,2275,-484,178
1232,6280,17176,18.32,-678,2401,-868
64,4512,18100,18.22,-2051,705,295
1632,4700,14596,18.46,-2174,-622,2444
1168,4476,13260,18.37,1194,-743,1590
1132,4476,19256,18.32,2361,-1024,-1391
528,5092,21952,18.41,-2837,-514,-1894
3540,4364,16776,18.18,-173,1051,-2081
2548,3996,14656,18.27,-23,-425,-53
396,4228,14268,18.27,1183,-1209,2238
20,4356,18812,18.32,3069,194,1019
-2764,5360,22112,18.32,-29,2181,-1192
164,4684,16848,18.27,-912,-404,1327
368,3644,14996,18.18,-1308,6,936
1520,4508,13132,18.27,643,-878,832
1216,3932,16780,18.32,1479,-895,-1413
-820,4368,20244,18.13,-986,273,-2506
2960,4712,19052,18.37,-113,-199,-1516
2724,4056,13044,18.27,-526,-307,-605
2176,4976,14728,18.32,413,-852,565
1036,4968,19744,18.22,2042,-709,769
-2680,4008,20104,18.27,-1655,2254,-956
-60,3544,16568,18.32,-647,961,-716
1536,3316,16576,18.27,-529,820,529
1312,5068,14164,18.22,1545,772,-37
-388,4488,16832,18.27,500,-563,-744
-308,4916,21056,18.18,-1194,437,-1500
684,4284,17808,18.32,-804,1216,-1410
1532,4056,15356,18.22,-1276,798,-1150
1424,5300,13780,18.37,-422,481,1212
-844,5128,19152,18.27,2395,-186,1428
-156,6020,19056,18.22,-411,2965,-1635
2076,4840,16780,18.32,-1781,1364,-1352
3228,4724,15788,18.27,-1504,79,1377
1096,4416,13732,18.37,1194,-443,1903
2440,5124,17868,18.22,1190,107,-687
-1908,4292,20244,18.22,-1505,-103,-3563
-268,4008,17424,18.18,-1373,1686,-1280
2744,4632,12572,18.27,-120,542,-1026
1344,5400,13948,18.27,80,191,1550
216,6244,18756,18.22,547,188,1034
1852,5396,18744,18.22,-492,2634,-1743
2884,5108,16348,18.37,-791,1970,-1554
2180,3652,15708,18.22,-753,656,-465
-200,4056,14468,18.22,1124,-671,-1017
464,5200,18604,18.27,1384,-128,-1128
-772,5980,21192,18.27,-509,-711,-3694
700,3724,18520,18.22,-314,1217,-1520
3708,5216,13508,18.27,-816,499,-365
932,4932,11420,18.18,818,297,479
-1688,4652,18244,18.27,1209,-613,-291
-256,6056,21548,18.32,-3708,2917,478
116,4196,15956,18.22,-546,580,22
1684,4452,14988,18.27,3,-688,726
1188,4696,13152,18.27,636,-528,594
-376,5740,16904,18.27,1682,-1385,185
784,6096,20776,18.13,-628,-799,-2289
1620,5032,16100,18.32,-970,1139,-1605
2540,4504,12708,18.18,-911,471,-604
1664,4536,13116,18.22,109,744,169
1732,6104,19288,18.22,1057,315,1487
4256,7184,19028,18.22,155,2568,308
1472,4272,17304,18.27,-1350,291,444
1328,4156,16028,18.18,-1569,115,1241
1920,4484,12548,18.27,1276,1162,105
-196,4404,17004,18.18,1460,-94,-1984
-2168,4632,24916,18.22,-2234,1737,-3316
852,3900,19932,18.32,-1389,1180,-1945
3392,5004,13820,18.27,-1070,410,-846
2044,4868,13912,18.27,1685,662,951
96,5028,18268,18.18,2560,-348,217
-1348,5204,21772,18.22,-2125,1326,-81
252,4836,17828,18.22,-1520,349,-666
4008,4984,14784,18.22,-1038,54,-233
2124,4860,12332,18.18,569,-340,-108
-708,5300,16408,18.27,1318,181,-228
620,5040,22224,18.22,-1927,550,-2094
2176,4748,19904,18.22,-607,1253,-1143
4136,5344,14272,18.18,-612,357,568
-352,4188,13020,18.18,881,-752,2363
-808,4800,18784,18.27,1602,-448,-460
2176,6232,17396,18.13,358,2426,524
976,4212,17536,18.27,-2011,-326,-254
1096,4484,13124,18.22,-3675,1434,-330
6020,6020,14632,18.13,846,613,26
-228,4672,17428,18.18,2259,-689,-257
-5924,2752,19148,18.27,-1780,883,-3472
3508,4572,20584,18.04,-1262,3307,-4164
5016,5936,14192,18.13,641,575,-939
1240,5640,12268,18.18,1411,-550,1591
416,5488,18024,18.13,2046,-45,1212
172,6004,19512,18.13,-1274,2263,-45
508,5312,15864,18.08,-1262,522,-358
1472,4228,16016,18.13,-533,-280,224
1952,5216,13456,18.13,769,-872,948
-20,5388,17888,18.08,875,-1699,-142
-3392,4076,20420,18.18,-3095,-604,-1120
-1012,3500,22384,18.22,-1578,1810,-2625
4736,5980,13984,18.08,308,1193,-682
1888,5252,12196,18.18,1678,-412,1032
2340,6432,17632,18.13,1776,704,-193
1248,6200,18244,18.22,-1689,1998,-2304
0,4524,18876,18.18,-2293,398,252
3436,5764,14052,18.18,-1940,766,-222
2164,5260,12428,18.18,647,-685,1050
280,5320,16900,18.18,1838,-368,-739
-3228,4416,22072,18.18,-2188,-177,-2893
1660,4984,18672,18.13,-940,1001,-1073
1020,4764,13076,18.22,-741,119,-162
1000,5784,13312,18.18,1033,-439,927
1608,6388,19172,18.18,1090,1081,156
-248,5872,18180,18.22,-218,3157,244
1544,4784,18184,18.22,-1272,1534,-1037
1160,5060,14832,18.18,-294,-17,-50
1684,4484,12916,18.32,793,-31,1333
472,6068,16200,18.13,540,-1115,118
-776,5804,19940,18.22,-1616,650,-3522
1244,5360,18900,18.18,-1578,877,-1678
2616,5220,13528,18.27,-597,513,-939
-500,4828,12672,18.22,676,-528,612
1104,7096,16236,18.13,582,14,-68
2708,6864,17420,18.32,1806,511,1128
3644,6072,18840,18.18,-407,602,393
1544,4884,14352,18.18,-995,-516,797
976,5000,13268,18.08,1178,-836,1567
1532,5540,14884,18.22,788,427,-79
5764,7512,17796,18.13,-497,103,-1810
1228,6912,17932,18.08,-898,71,-558
448,4716,14948,18.18,-1036,495,-828
-2612,4240,14100,18.18,929,-948,-783
-360,5888,13860,18.22,2329,12,601
-1368,5928,19740,18.22,1415,-642,1965
-2452,5568,21568,18.18,-326,-2963,3648
-3008,3844,16372,18.18,-2065,-369,1228
-404,3912,14052,18.22,510,-972,1545
356,5048,14700,18.18,2337,-253,-350
3300,7068,17928,18.18,795,-1117,-1309
4036,7104,19884,18.22,-1735,-973,-1322
-844,4532,16240,18.22,-653,-535,238
-2828,3832,13268,18.18,643,758,241
-616,5880,14464,18.27,1213,191,111
-1136,5364,21124,18.22,1006,230,455
-2664,5584,19604,18.22,-720,886,1368
-2332,3472,16728,18.18,-2046,315,480
-348,4280,13596,18.18,-1230,146,-98
-828,4356,13376,18.27,179,714,-545
-1984,5564,19920,18.22,310,-887,-85
-2604,5120,21180,18.32,-1684,146,-1767
644,3860,17400,18.22,-566,-95,-500
3368,4464,13412,18.27,-1678,49,-598
1400,4764,16524,18.18,-30,408,64
-912,5212,19468,18.27,2166,2154,-857
-1512,4984,19528,18.32,-1043,397,-217
-916,4256,17008,18.13,-1725,1166,617
396,3748,14828,18.18,-1050,679,-133
780,4796,14456,18.22,903,1577,-485
2544,6380,17160,18.22,1080,-128,-2692
-1484,5544,20272,18.18,-1243,-754,-1450
428,4248,17500,18.22,-292,410,-325
-100,4236,15344,18.13,-203,756,-1376
1852,5632,14288,18.13,803,-213,-608
-1704,5192,19476,18.18,2415,124,348
-1088,6644,20544,18.18,417,1468,-154
-3468,3732,18700,18.13,-2610,467,-970
-152,4656,15124,18.13,-1237,468,830
164,5060,13764,18.18,1103,5,-590
-24,6020,18656,18.27,1992,395,-1004
-784,6372,19456,18.22,-1767,210,-729
984,5628,17160,18.22,-940,-536,-48
-1280,4600,15132,18.18,-2316,-490,981
2228,5236,14060,18.27,699,1576,-375
268,5824,17792,18.13,1894,703,-1209
-1632,5196,20048,18.18,-662,-341,-1087
-2276,4968,16964,18.13,-1847,-789,-565
-364,4844,15320,18.18,-278,729,663
420,5072,12992,18.18,1633,912,-137
16,6256,17144,18.18,1662,-242,-240
-568,6176,19900,18.22,-2490,-49,343
1396,4420,15344,18.18,-1336,-152,-732
-872,3964,14188,18.18,117,558,-978
352,5336,15708,18.22,1021,1048,-817
-1716,5772,19528,18.18,1787,-672,320
-780,6012,20812,18.18,-637,-2867,726
-2648,4044,15800,18.13,-1941,-570,416
-2704,3192,16844,18.22,217,-394,564
-1696,4696,14992,18.18,2046,-268,945
-92,5468,20472,18.22,1160,-827,-348
2740,7580,19704,18.18,-992,276,-157
-528,4180,16180,18.08,-1822,40,-113
-2876,3416,15188,18.22,-81,460,24
-84,5332,16236,18.18,582,-383,977
-556,6308,20120,18.27,1296,115,1070
592,5496,22160,18.22,-174,-1792,482
-1620,3948,17416,18.27,-1246,-382,1026
-2524,2656,16548,18.27,-288,-932,1065
-1284,4480,16636,18.22,1279,651,-533
-616,6076,20804,18.18,1681,-196,-1104
-256,5460,19868,18.13,-2533,-717,134
-164,3644,16796,18.08,-766,757,-1377
-2032,3288,15276,18.18,-1085,564,-716
452,5348,15004,18.18,172,-243,141
-692,4816,20556,18.22,1454,557,665
-812,3920,22564,18.27,-493,-476,965
-1800,2828,16480,18.18,-1920,273,118
-856,3176,15940,18.13,278,572,-892
-468,4104,14800,18.22,748,-345,-817
648,6072,18888,18.18,732,-335,-663
2128,6472,20200,18.27,-508,349,-1748
412,3744,14768,18.13,-2032,89,-691
-2092,3640,14596,18.13,-1134,-39,-1497
1604,6224,14828,18.27,109,1196,-585
136,5540,20512,18.27,1858,701,1714
636,4932,20876,18.27,-175,-19,1758
-560,3368,16560,18.27,-1231,-366,593
-1988,3460,15260,18.13,-563,117,1008
-1068,4500,14568,18.18,1470,-1145,840
-1352,5636,19024,18.22,1447,-93,-687
668,4808,17576,18.22,-2627,-140,-728
280,3952,16060,18.18,525,12,-489
48,4260,14588,18.27,-396,174,-1694
828,5720,15476,18.32,352,-435,-276
332,5708,17252,18.32,1899,1128,-425
-1756,5232,20904,18.18,-1380,1094,441
-1892,3536,17128,18.27,-2031,930,-766
1916,4976,14440,18.27,-1575,2079,-936
504,4784,12380,18.27,1137,26,-208
-892,5748,17216,18.32,817,-2168,440
-1736,4740,21840,18.27,-945,-838,-778
784,4048,16076,18.18,-58,-134,-863
-224,3920,13608,18.22,-429,-574,-465
1100,5336,14272,18.27,1134,681,848
-1120,6064,19592,18.22,2489,2751,102
-2816,5220,20648,18.22,32,791,710
-836,3552,16868,18.27,-1924,-76,-768
1332,3920,15752,18.32,-1954,497,567
-1116,4444,15152,18.13,845,955,-1284
-176,5432,17660,18.18,2331,-1456,-551
-1344,5516,19696,18.22,-1337,-935,-1760
1452,5168,16584,18.18,-2238,14,967
-476,4324,15860,18.18,-637,338,-983
964,5496,15048,18.32,1507,-242,411
-112,5332,17004,18.18,2596,-596,-1257
-2208,6216,17640,18.18,237,2858,-500
-1652,3796,18020,18.13,-2684,1941,-781
716,5736,12660,18.18,-2224,1912,-915
1208,5456,12832,18.13,-1475,-836,-3449
-8,5276,16592,18.18,227,-515,-1711
836,5356,19860,18.18,-2004,570,-2682
824,4408,19712,18.18,-148,763,-1718
2524,5784,13696,18.22,-1855,-620,-816
2196,4716,15304,18.27,-61,-1167,1141
1696,5300,17116,18.18,2430,20,-215
588,5120,20324,18.22,-386,713,-1421
916,4120,17928,18.13,-692,1033,1046
2316,4156,15492,18.18,-821,1221,1044
1248,4568,13040,18.18,1900,-561,1905
-100,3780,17248,18.22,972,-495,-628
52,5808,21848,18.22,-2498,574,-2818
1148,4236,19788,18.18,457,-847,-1369
224,4460,14424,18.18,-28,-35,-131
724,4732,13144,18.22,873,-477,1123
1184,5640,18120,18.13,2311,467,942
600,4556,19996,18.27,-1217,1442,159
1120,5580,18216,18.13,-1897,343,1319
2312,4580,14536,18.13,-1510,783,700
3332,4608,12848,18.18,1255,244,411
-36,5140,17620,18.22,1314,-450,-1086
-400,4360,23004,18.22,-976,204,-3321
2696,5536,18224,18.18,-469,1394,-1804
1940,4480,15420,18.22,-694,-1142,-427
568,4808,12908,18.18,676,-626,1170
1968,5784,17800,18.08,1136,-752,508
808,6660,21024,18.13,197,1672,-374
584,4500,17568,18.13,-1285,1063,-536
3252,4944,15508,18.18,-2248,782,930
2696,4560,14096,18.18,778,112,-2
1796,5416,18636,18.18,1533,-802,-1667
-2628,4472,23072,18.22,15,570,-2402
884,4380,17820,18.22,-550,-2644,-209
2108,4612,16320,18.27,-1145,-1441,-452
872,5264,14152,18.18,1088,-514,613
4,5112,18828,18.18,1901,-20,204
-1400,5628,21768,18.13,-290,1868,-391
84,4124,18548,18.22,-1427,1121,20
736,3464,16284,18.22,-1741,215,462
2704,4812,13172,18.18,347,38,7
1080,5528,16692,18.18,9,-1450,-1040
780,4924,21068,18.13,-41,11,-4016
1080,4428,18988,18.13,-1676,1141,-1501
3024,5116,14816,18.18,-2114,1018,1038
1876,4992,14152,18.18,335,371,1897
92,5456,16476,18.18,1532,1752,-589
-252,5348,17756,18.18,501,1743,-45
-1732,3108,20304,18.18,-410,-21,1012
-572,3384,17600,18.13,-544,2,1970
-388,3788,15116,18.18,1645,911,379
836,5336,14152,18.13,1335,333,-2609
-1056,6232,18120,18.22,1346,1262,-1784
1052,5644,16988,18.22,158,746,-5198
1352,5596,15488,18.18,2051,-1343,-616
-976,4840,15020,18.18,-294,-385,-1820
1092,6112,14960,18.18,-894,251,370
2744,7324,15736,18.22,225,372,1475
1296,5664,20008,18.22,2306,981,1913
-2248,4632,16884,18.27,862,1526,1498
1604,5492,15124,18.18,246,495,305
1036,4164,14072,18.13,-667,47,-1252
1380,5844,15856,18.22,-1078,-362,-1478
836,6120,17612,18.27,-2586,79,-1015
1276,5792,16612,18.18,-521,210,-297
492,4864,15836,18.18,-757,572,-131
1152,5684,16800,18.18,-401,151,204
960,5380,16496,18.22,-77,342,-43
300,5228,16296,18.13,-175,892,-501
660,5824,16920,18.22,-203,805,-350
764,5980,17020,18.22,61,707,-536
524,5708,16936,18.18,-65,321,-221
740,5764,16424,18.18,-531,-72,124
172,5512,16316,18.18,-268,-21,214
940,5752,16264,18.18,-284,-261,-45
644,5716,16520,18.18,268,-77,-116
432,5572,16148,18.18,-37,-310,-63
792,5824,17300,18.18,-249,194,-149
444,5740,16984,18.18,347,269,129
660,5864,16584,18.22,144,-137,100
380,5796,17044,18.13,375,205,136
660,6004,15772,18.18,527,255,110
992,6104,16596,18.18,547,-57,275
680,6308,17004,18.18,595,381,251
52,6080,16392,18.13,329,713,102
1000,6264,16900,18.22,-79,264,246
164,6212,16480,18.22,180,132,438