aX,aY,aZ,temperature,gX,gY,gZ
-80,3524,17376,16.53,316,690,-867
156,3648,16820,16.58,-251,220,6
664,3728,16408,16.58,12,121,380
480,4076,16540,16.62,-90,1127,22
-124,4440,16252,16.58,148,2934,1712
-1116,4828,16364,16.67,-1674,-287,629
1844,5148,15260,16.58,-1543,-30,-367
-1856,4180,18544,16.53,-654,777,-1457
144,3880,18788,16.62,-1150,-1229,-2363
-588,3036,18376,16.67,1288,-569,-1955
-448,3672,16160,16.58,1761,171,-303
-720,4220,16136,16.67,-223,1349,580
-3208,4840,16932,16.62,-1149,1682,777
-1776,5948,16508,16.53,398,-1143,514
1056,5856,13352,16.67,1239,-4366,894
-2768,4828,18688,16.58,1778,-1237,3141
-524,3100,22560,16.67,-2651,-317,1842
-616,3516,17828,16.72,-17,1211,1457
-1792,2316,18404,16.53,-402,570,-682
-916,4284,15104,16.58,1036,-481,1513
-300,5088,16640,16.67,602,1368,446
1236,5292,21364,16.62,979,683,884
964,3380,22076,16.62,-591,-429,98
796,2400,14400,16.67,2116,1037,-1809
-132,4704,14184,16.67,566,-864,-1355
4,4452,14180,16.62,382,-110,-243
1280,6452,16624,16.67,1826,880,-143
1616,5336,18444,16.67,771,531,48
176,4408,18044,16.62,1118,-503,2566
-1156,3520,16348,16.53,-2772,-65,170
-652,4480,15020,16.67,2133,30,2541
-596,4672,15340,16.67,1414,-733,808
1652,5596,18444,16.62,1219,47,-1273
1460,4280,20468,16.62,-1197,976,-2430
832,3236,16452,16.62,-1807,49,-1595
-616,4428,14656,16.58,-982,-194,-1247
-36,5012,14816,16.77,827,-681,-75
-616,4912,19076,16.53,49,-230,-214
-2776,3208,21440,16.62,-1990,-249,-1074
1628,3388,18420,16.62,-1305,-1055,2418
16,3112,13636,16.58,-1080,585,571
1652,4292,12980,16.67,259,-541,-209
-72,4956,18836,16.72,98,-1416,-1198
-556,3908,21228,16.72,-393,-215,-2429
3528,4112,14464,16.67,959,-389,409
792,4172,14536,16.58,-732,1144,-1121
696,4304,14356,16.67,745,719,1145
1284,5728,17388,16.72,1235,-218,669
192,5792,17956,16.72,1157,1282,1165
-1324,3788,21448,16.62,-577,416,1797
2396,3096,16944,16.58,-2469,389,1571
-1000,3528,15528,16.67,-959,1188,2535
876,4552,14284,16.67,982,73,219
-1304,4164,21640,16.58,-386,-505,-1954
128,3696,24040,16.77,-1008,488,-1393
1324,3004,15980,16.67,-192,-349,-760
-1240,3284,13440,16.67,-449,718,-1203
2244,5064,15432,16.72,-88,745,153
24,4860,18268,16.72,1387,-444,-380
-2828,3656,21740,16.77,-2056,956,-722
-1020,4300,13908,16.67,-1212,294,2336
-1100,3272,15360,16.58,-517,-37,2338
2104,4976,12988,16.62,624,-242,3055
-1348,3276,19380,16.62,1237,-836,-389
-2292,2760,23244,16.62,-2264,1014,-3333
252,2792,19408,16.72,-101,575,-1792
468,3488,16896,16.67,428,804,-1807
788,4548,14124,16.67,-22,-1545,743
-1300,5464,17960,16.72,2053,49,-1447
2436,6112,17424,16.62,-231,1125,-2002
68,4160,14884,16.67,-142,1063,1251
-536,3304,13472,16.77,675,1233,1770
272,4056,13536,16.72,2167,-924,2848
376,4456,18976,16.67,748,-1388,-1124
2648,4568,17328,16.58,524,8,-2565
2796,4644,16568,16.72,67,-750,-190
396,3784,15664,16.67,-1874,1215,-1605
-4316,3888,15372,16.67,-1305,91,-476
2056,6468,13944,16.67,1541,880,546
5772,6168,14308,16.62,226,1736,1951
-904,3784,20120,16.72,973,674,2194
-2780,1680,18348,16.72,-230,-5,1228
-1412,3120,15276,16.67,-111,-586,2430
-1696,4168,18028,16.77,70,-1690,546
3940,4852,22692,16.72,728,-1820,-3334
2080,5204,19236,16.81,1584,-1313,-250
-1188,2716,15116,16.77,-1371,-225,-1160
-1684,3680,13816,16.77,742,835,1390
2048,6316,17844,16.72,1710,17,-777
2664,7120,19924,16.67,3473,1109,356
-3256,4404,18272,16.67,1391,-1886,2369
-2700,2292,18996,16.77,-1805,182,-248
-2448,3192,15920,16.72,-2623,-1252,1471
1952,5728,13216,16.72,1543,1519,-293
1552,6584,20576,16.67,741,-1921,691
744,5120,20752,16.62,-1396,-896,-729
468,3492,14364,16.72,-1713,167,-86
124,4128,13640,16.67,264,860,-1019
1812,5904,13940,16.81,1160,-112,1006
-1304,5460,23024,16.77,2301,-55,384
-2952,4712,20396,16.67,-1056,735,-241
-192,3880,14632,16.72,-2637,-750,1464
-292,3320,13572,16.72,-2337,-157,605
2192,4988,13744,16.67,812,-765,516
328,5632,21540,16.72,1776,-671,-1826
296,4832,21668,16.72,-2730,627,-1906
3608,4192,15068,16.72,-147,769,-997
2464,4116,12172,16.77,-179,1279,-1428
616,5120,15156,16.77,1113,486,160
1020,5856,22068,16.77,2467,79,754
-2672,4388,22848,16.77,-1854,253,1550
776,4336,15488,16.72,-2435,612,164
5072,4544,14540,16.72,-908,392,1773
2220,4944,13736,16.67,1592,-1245,355
-1536,5240,20060,16.67,2320,-462,-852
-4540,3892,24220,16.81,-1804,179,-2390
1372,4376,16460,16.81,390,1000,-349
2424,4764,11676,16.77,-36,500,-813
-512,5368,14200,16.86,-296,427,1022
-208,6304,20508,16.72,1567,-62,-29
2492,7444,16016,16.81,-907,2104,-988
2912,5736,14276,16.77,-476,-138,3102
508,3480,14064,16.86,-1005,59,-50
1704,4976,14936,16.67,245,-424,836
592,5540,17744,16.72,1929,-1326,-1568
2656,5644,18520,16.81,-1779,-505,-3501
3784,4848,21812,16.81,-2364,-185,-1929
-1268,3412,16188,16.77,-470,-40,-1069
-2824,3984,12976,16.67,2228,418,408
1344,6952,17124,16.86,1070,1370,236
1552,7280,15104,16.81,3598,1770,1615
-1012,5524,19680,16.77,829,-1183,3635
-772,3444,14760,16.72,-2584,1256,-233
352,3804,11284,16.86,287,-125,-883
4700,6916,14572,16.77,1245,-1415,-661
1372,7584,20248,16.77,2478,-2843,-536
-480,4384,18344,16.72,-69,-1141,-1914
796,4244,14700,16.81,-1874,664,-1189
-184,4508,13124,16.86,-745,205,-499
1736,6728,17208,16.72,1511,1427,547
-1848,5288,21220,16.81,2855,2516,-1673
-3716,4672,22472,16.77,-1644,53,955
-980,3532,18532,16.77,-2115,158,-804
2248,4644,14032,16.72,-832,396,612
-316,5408,13936,16.81,1733,-500,79
-1524,5580,18576,16.77,-1139,-1116,-967
-1808,5420,23124,16.77,-4482,302,-2592
-992,3844,15352,16.86,-230,1238,-1795
2156,5004,13880,16.72,1246,566,-568
1872,5964,14212,16.77,1367,488,1516
376,6584,19908,16.77,1797,-522,1313
872,6192,19856,16.77,-2158,705,225
-308,4692,15120,16.81,2,966,56
-652,4116,14796,16.77,-851,-136,750
-444,4800,13280,16.77,1403,-409,2720
-1060,5592,14488,16.72,223,-653,-1547
1728,6508,21012,16.81,-3577,495,-4592
2460,4220,20248,16.77,-75,599,530
-1440,3300,17780,16.77,-644,629,-640
-4640,4260,14896,16.81,-252,1069,-162
-972,6480,17912,16.81,1516,419,45
1476,7456,18176,16.81,3738,1539,2748
-216,4792,19540,16.72,2869,-1573,4848
-1208,2936,17484,16.77,-1370,-150,849
-720,3832,13504,16.86,350,-814,-2164
-728,6300,16440,16.72,971,-542,-1758
3660,6740,20084,16.72,1687,-3310,-896
-456,4996,16764,16.86,-294,-3375,82
-832,3976,16224,16.77,-2072,-549,-560
-2836,3632,14600,16.86,-1014,519,-936
308,6320,16936,16.77,301,98,139
-1304,6064,21036,16.81,3420,1843,991
-2824,3884,19808,16.81,500,-1371,2156
-452,3584,15748,16.81,-2578,846,-173
544,3728,13500,16.86,-265,-654,251
1104,5600,15372,16.86,-601,-149,-1054
580,6180,20316,16.77,2105,-2783,1082
-2240,4228,21784,16.77,-1388,-295,-1850
-368,3384,14144,16.86,-95,1134,-2233
1972,4580,13592,16.86,-918,400,-1904
1180,6376,12720,16.81,239,1759,64
1864,5012,19348,16.81,3316,253,1124
-2772,3640,22412,16.81,231,554,880
-920,3564,16428,16.91,-2942,396,-923
524,3840,13060,16.77,-1625,1564,21
2544,5200,12932,16.86,933,1387,58
120,5084,23108,16.86,685,-1037,-1722
-408,5232,21660,16.81,-338,997,-3397
3436,4828,14668,16.77,699,1464,-498
2340,4764,13140,16.86,626,398,-468
-400,5008,14976,16.86,147,-714,37
-176,5496,18004,16.81,1297,673,442
1184,6456,15872,16.81,-2373,1700,-29
424,5088,16712,16.81,-1637,1083,3553
-296,3816,12872,16.81,-174,314,1691
944,4144,14148,16.86,668,-873,2073
-36,5648,18556,16.77,1491,82,-1964
-616,6096,21972,16.86,-1545,-1291,-4266
32,3640,17016,16.86,1120,-705,-476
76,4308,17036,16.86,1239,12,-1254
-2272,4060,15912,16.81,1430,189,428
1424,6924,18836,16.81,1538,-567,1300
-1880,7212,18216,16.81,-922,3011,-2992
-1900,5824,15552,16.81,-1582,637,4484
-3244,4000,16608,16.81,-745,235,3584
-2172,4116,15556,16.81,49,-636,4194
4008,6456,18508,16.86,1876,2142,-538
3948,6408,18712,16.91,439,-2204,-1667
1052,4472,18936,16.86,-2491,-2393,-1058
-2656,3260,15892,16.77,-1980,-931,-2546
-2788,4424,15900,16.95,-769,805,-2984
976,7420,16912,16.77,3379,1036,-22
-780,6672,17916,16.91,2665,1087,1524
-2672,5316,20544,16.81,278,1260,3448
-1568,3908,16544,16.81,-129,263,2248
-1900,4048,16344,16.86,-1232,816,633
-1032,5236,18040,16.86,2089,-1092,907
-84,6740,18440,17.05,1649,-1724,-936
-1412,6184,17784,16.72,-456,-2375,273
-76,5084,14308,16.91,-964,2138,-2487
2516,5800,11132,16.95,800,524,-87
-184,6592,15048,16.77,789,-364,1298
-736,6872,21172,16.86,5774,399,4380
-4172,5640,17964,16.81,-2085,1261,-1672
-388,4964,20052,16.81,-4911,1462,-1089
64,5280,13864,16.91,-874,1632,664
2580,5980,13652,16.86,1245,-1085,25
-1604,5920,18640,16.86,539,-1246,-1090
-3224,5920,18404,16.95,-1583,-326,-2808
4972,5824,15692,16.86,-581,584,144
2744,5480,11920,16.91,415,397,-1741
2084,6860,15204,16.81,860,-1821,1160
-2068,6372,17916,16.81,-1428,2239,-439
-1168,6840,19564,16.81,-3956,3959,-1588
2984,5856,17996,16.86,-313,92,1704
-1656,4144,13552,16.86,-453,-1174,1281
-308,4644,15080,16.77,1006,-1574,3050
388,5444,17412,16.81,-479,-334,-1749
-748,6028,20220,16.91,-3320,2513,-3379
2540,5952,17744,16.95,305,-854,-1800
-3580,4400,14324,16.77,-234,514,-966
-4684,4856,13728,16.77,159,1011,680
204,6428,19968,16.86,850,-514,1581
532,6480,17216,16.81,610,1402,1202
1996,6976,15640,16.86,-82,715,3422
264,4444,15184,16.95,349,216,3283
-1664,5940,14372,16.91,742,-2086,2640
1932,5836,15448,16.91,1327,1496,-2348
2400,6868,16548,16.91,-883,1280,-2153
868,4760,19960,16.91,-341,-101,771
-1720,4612,15096,16.81,24,-630,-1020
-3728,4880,13632,16.86,180,321,-1398
-876,7124,17840,16.86,847,858,-779
5156,9192,17108,16.86,1108,1129,428
2628,6568,16668,16.81,382,229,2287
-384,4644,15328,16.91,-362,781,-244
-192,4920,13872,16.86,2210,-1171,2128
-580,5800,17060,16.86,840,-909,-1158
2060,8168,18032,16.81,400,383,-3661
-1372,4808,19808,16.81,-733,-1329,-141
-2084,4352,14168,16.81,-1598,-514,-3519
-1808,5388,13796,16.86,244,-685,-618
-992,7460,15780,16.86,1465,184,210
-1052,6812,19432,16.91,1739,1120,1605
-5616,5168,19108,16.91,215,774,2368
-1360,4904,16800,16.91,581,-739,1930
-3992,4696,15024,16.91,-2,-744,1631
-1928,6088,14724,16.86,1806,-858,686
1320,7080,18396,16.86,622,-1370,-877
1208,6384,19632,16.81,-2475,311,-1129
1860,5488,13372,16.81,-33,1400,-3659
1940,6264,12440,16.86,-1176,-61,-2354
748,7244,14064,16.86,583,227,-465
-1572,7360,17980,16.91,2919,-712,-1280
-4448,5480,19556,16.95,-3327,2678,-2358
1776,6444,16196,16.91,-3119,2611,2427
1684,4024,13420,16.91,-1302,1267,2729
3648,5780,12936,16.91,2011,-183,2561
-1084,6420,17960,16.86,1927,-623,1809
-3472,6284,21376,16.86,-1519,1343,-3627
1244,5348,15120,16.86,525,-473,-1465
1448,5384,13536,16.91,-591,-411,-1017
-2460,5772,15456,16.81,1198,54,984
-1572,7208,19400,16.86,2465,1112,144
676,7760,16316,16.86,-1359,2685,-363
2244,6800,14856,16.91,-1716,1629,1625
-1448,4256,16340,17,-1483,337,2404
-1196,5412,12992,16.91,2102,-899,1556
-356,6596,17356,16.86,233,-2406,-1881
-1392,6372,20840,16.86,-1805,664,-4902
1048,5792,17500,16.86,2077,-1569,-189
-5020,6064,15020,16.81,141,199,-592
-3120,5712,15692,16.81,1071,1025,-851
-2524,7760,17684,16.86,3274,1149,2615
360,9612,13936,16.86,-1306,3641,1795
2324,7196,13556,16.86,-1513,1247,5465
-1508,5276,15384,16.86,-2108,1892,2428
-700,5664,14096,16.91,1244,-1664,3865
688,6728,16532,16.81,739,-344,-1928
-480,7204,19756,16.81,-2903,-630,-2190
608,5368,16996,16.95,1863,-466,-2297
-952,5560,14880,16.86,-1119,-3287,-3473
-6772,5080,16048,16.86,800,-3028,962
-252,6968,17252,16.91,1812,1006,-39
-92,8020,16852,16.91,-2855,2366,-1561
52,6348,14420,16.86,399,539,3438
-352,4212,16188,16.95,-1574,-626,28
-312,4528,13452,16.95,532,-1079,-699
-308,4944,14508,16.86,1825,-1670,-4136
748,6384,22204,16.86,-4148,-1424,-8117
-2984,5736,17560,16.95,-1422,577,-5330
928,7252,10660,16.95,-1551,1467,-5338
796,7248,14380,16.91,2732,1951,-1073
-2416,6508,17956,16.81,3785,-119,3489
-3844,5216,20720,17,-2491,-335,1738
-3620,5616,20296,16.86,-3863,80,2190
-2096,4316,16888,16.86,-2901,475,1488
164,6184,12692,17,1360,-282,-384
5636,7428,17224,16.91,2006,-2268,-1331
3296,7232,20300,16.86,-2416,-684,-834
1792,6008,16900,16.95,704,-1074,-215
-4724,4760,14152,16.91,-614,92,867
3108,7404,17324,16.95,-1045,-914,470
2080,6776,16644,16.95,-2345,2991,-8280
940,5708,15440,16.95,-1699,-1258,5242
2828,3720,16584,16.95,-2443,2305,-130
840,4468,15216,17,4883,224,-957
4688,6852,17440,16.91,3315,-6817,-484
1180,5516,25220,16.91,-2607,-2046,-4056
3260,4860,14180,16.91,-260,-160,-2421
3260,5432,12396,16.91,-1477,1078,-887
964,5788,14896,17,2866,1427,786
1364,6416,18476,16.95,3319,3249,2488
-5052,5368,24580,16.95,-519,2299,2894
2284,5768,15100,16.95,-75,-2620,793
2248,4832,11656,16.86,24,-623,2822
-1952,4824,14844,16.95,1455,922,4313
2232,6280,17376,16.95,-1741,-973,1070
2844,6920,20696,16.91,-3872,1570,-3992
6912,6096,15656,16.91,1424,-89,2213
-1272,3944,16748,16.91,335,-1070,-779
-32,5380,14952,16.95,-1740,1945,-1755
2720,8444,15696,16.86,3918,1346,937
1188,7528,16488,16.95,247,607,790
-1128,5024,19404,16.95,170,1096,2832
976,4992,12264,16.95,-2057,-81,2268
-3836,4872,16648,16.86,969,-540,2045
1772,5648,16416,16.86,1031,-101,-938
-3448,5304,21492,16.91,-8217,1036,-5215
-1372,3824,21652,16.91,-1108,2139,-1376
-832,3372,13892,17,919,321,-2368
592,4380,14144,17,-1340,652,-4873
5632,7292,14036,16.95,2925,506,-414
-2372,6752,18780,16.86,1331,3205,1819
-2860,7316,21756,16.95,-2028,3599,912
3308,6912,14660,16.95,993,-1574,5056
-1632,4400,13304,16.86,-106,519,2429
124,5056,15404,16.86,1972,124,3275
548,7712,17356,17,2242,-1816,-259
2248,7196,19556,16.91,-2506,-467,-1784
208,4596,19752,16.91,764,630,-3358
-3216,4484,17328,17,-664,-420,-1785
-2436,5172,14204,16.91,-1496,1446,-1839
1920,7884,15772,16.95,1704,1702,104
944,7940,21492,16.95,2517,1985,478
-1196,7092,20008,16.95,-673,1340,2666
3708,6416,14984,16.86,-184,383,3476
3008,5020,13072,16.95,-2474,839,2297
2156,6264,14496,16.86,1186,-1164,3195
1012,7436,17904,16.95,2257,-1971,-104
1360,8268,18792,16.95,-2303,-3065,-4080
-2424,5000,22660,17.05,-1541,-846,-2102
-3396,4516,14244,16.91,-90,556,-3013
1708,6216,12420,16.91,-1030,257,-2961
564,7580,13172,16.86,-230,-981,-217
-768,7668,18632,16.95,806,924,-3055
-2644,6996,16620,16.95,-683,1184,236
1776,6756,16564,16.95,-1884,1701,2959
288,4536,12896,17,-871,66,2745
3756,6436,13420,17,1387,-313,2275
-180,7252,22056,17,-1681,1195,-296
-3716,4920,22716,16.95,-1369,-1025,-3959
1156,4644,14280,16.95,-432,-295,-1252
-2560,4444,15568,16.86,1400,1161,-1421
936,6068,13636,17.05,2068,1151,-644
-2040,6880,18264,16.86,1934,527,202
-4668,6572,20164,17,-1085,1447,241
-1772,5704,16688,17,-3299,649,998
2276,5132,13712,16.91,-1777,-483,1003
956,5620,13508,17,2199,-718,2466
-1128,6116,15476,17,1677,-484,-1058
1348,6812,20812,17,-1084,-2821,-3770
356,6180,15648,16.95,-933,-2870,-3457
-2488,5076,16076,16.95,-2729,-1107,-2695
-2496,5488,14412,16.95,-1495,525,-2990
-3448,6844,18452,16.95,162,-2009,-211
-456,8160,17836,16.95,2237,3106,1786
-5708,5204,21504,16.95,2719,-1354,5347
-3844,3348,14388,16.95,318,446,2048
556,4508,12872,16.95,907,-1761,2157
-868,5932,14000,16.95,2140,-2480,1136
4356,7684,19224,16.86,924,-2260,164
292,7116,18528,16.86,378,-627,-1847
1524,5064,13904,16.91,-1930,870,-2258
260,4884,11900,16.91,484,1610,-263
1488,7572,16624,16.95,1700,841,616
-428,6664,22068,16.95,1302,2381,1746
-5596,5052,22812,16.86,-928,1369,665
-8,5436,15808,16.95,-3400,1444,1856
1096,4648,12860,16.91,-782,1011,1864
972,6192,14608,16.91,1482,-979,1917
1056,6536,18396,17,184,-1563,-1148
1476,7024,18456,16.91,-533,-198,-4143
2912,6000,12588,16.95,-185,283,-2528
1700,6228,12496,17.05,-976,-245,-409
-108,6592,15076,16.91,1021,176,259
-1248,7396,21916,16.91,2481,358,506
560,10396,15664,17.05,-738,3993,-114
1792,7336,11940,16.86,1275,1134,4621
-956,4972,11616,16.91,-163,-1393,4274
-1768,5016,16860,16.91,-466,-1766,3473
-140,5972,17964,17.05,2211,-51,-1042
3640,7524,20084,16.95,-2070,-1715,-5221
88,5668,18844,16.95,-610,-720,-2230
-464,5740,14236,17,511,-1523,-2274
-4380,5068,16272,17,-871,-181,-269
-1632,7232,18920,17,1503,2077,-266
2108,10028,15428,17.05,2245,1999,2647
-2020,6380,15824,16.91,1166,1042,4877
336,5236,15504,16.91,-2669,1392,890
4036,5484,15708,16.86,2323,-2907,3356
1344,6036,16204,16.86,1337,-2186,-3477
6616,8324,17664,16.95,-1008,-1161,-2134
8,4416,19912,17.05,548,-833,-2321
-1288,4760,17572,16.91,-2247,-494,-3006
-2248,5340,14232,17.09,-184,1324,-2288
2116,8504,15580,17.05,2183,1651,163
-2328,6976,20528,16.95,2519,2084,647
-7416,4668,21712,17.05,-3910,-1145,-79
1188,5604,14016,16.95,-1895,177,340
2716,5468,11912,16.95,-568,-322,2343
804,5824,14336,16.95,2467,-1629,3887
-2640,5952,19684,16.95,230,-352,-1464
112,5604,21840,17,-4007,-12,-3725
7668,5212,12720,16.91,533,620,-4731
2732,5576,12104,17,724,-1008,-1120
-2172,5764,12996,17,1885,1163,-1190
-468,7304,17064,16.91,2264,2023,-736
1256,7716,18560,17,-575,2670,-834
-160,6264,16316,16.95,-1670,-310,5370
-1436,4272,12740,16.95,-1011,-757,3638
560,5212,15752,16.95,503,-2840,4179
2676,5992,18344,17.05,1480,-298,-2701
5652,8088,15772,16.95,1946,-1985,-5717
-2644,3880,23208,16.95,-2494,-4270,-4952
2516,5424,13092,17.05,-6568,1712,-4631
-1976,7364,14576,16.95,-863,470,-3366
-264,7424,17620,17.05,2642,-738,-1383
-2832,6592,20412,16.95,1824,2343,-7
-3144,6052,23612,16.91,-1057,1066,2490
-1424,4660,17636,17,-2540,1098,-38
-1744,5320,12676,17,-1079,1719,-1807
2452,6556,11784,16.91,2569,-1152,1000
944,7700,20164,16.91,1151,-2274,509
-840,7528,18676,16.95,-2789,368,-4850
3600,6784,11772,16.95,-1048,1841,-3549
5008,7252,10348,17.14,1789,-2468,-710
-2692,7060,15308,17.05,2913,-30,635
664,8240,16552,16.95,1679,1722,1420
-2236,6344,22140,17,565,-577,2914
-4256,4692,16532,17,-1858,-1140,1320
116,4480,13380,16.91,-2391,2988,-868
1100,7292,13780,16.91,1162,-1648,3437
-712,5940,18532,16.95,725,-1428,-1370
-1796,7052,19060,17.05,152,-3453,415
3240,6548,15540,16.95,1613,-477,-1124
-2000,5736,15232,16.91,-1378,-48,279
-656,6232,13860,16.91,-153,139,1925
772,7724,17812,16.91,-141,-383,1365
-3288,6776,21388,16.91,1067,3370,1433
-2884,5436,22340,16.91,-608,1177,2812
456,4584,17636,16.95,-1459,405,-109
608,5200,13060,16.95,-905,844,959
24,6264,14984,16.95,676,601,882
-920,6208,20644,16.91,531,-357,1292
-712,5856,20788,16.95,-1613,1234,-3067
2460,5516,11264,16.91,-2070,1989,-1971
4872,5492,12916,16.91,-633,-161,86
308,6296,13584,16.95,2709,-2003,-685
104,7700,18840,16.95,2681,-974,-1022
-1328,7404,20520,17.05,-2214,1099,-639
1028,7600,12504,17,258,-385,2094
-164,4632,14492,17,-814,320,1299
1236,5520,14280,16.95,791,-966,1778
-1548,6024,19216,16.95,764,142,-2125
3476,9124,20320,16.95,-1572,670,-3049
-220,4380,17440,16.95,-29,-1501,-890
-1536,4972,15436,16.91,-1441,-254,-1430
-2076,5956,13876,17,-307,496,-959
-268,7792,16900,16.91,236,565,-1172
-84,7828,16864,17.05,3164,2299,2618
-3784,5508,19832,17.05,94,-794,3374
-252,4116,13336,16.95,-4032,2071,-1409
3300,6012,12344,16.86,786,-74,2651
1708,6216,16204,16.91,3109,-413,-82
-124,7516,21488,17,1413,-2145,-92
-1420,6416,17404,16.86,-1450,-1533,-4494
1096,5740,9828,16.86,-1005,-114,-5138
676,6032,11568,16.95,66,1148,-2521
-2380,7656,15396,16.95,1431,-363,1289
1296,7576,18004,16.91,3469,971,757
-4220,6860,18364,17,-2715,647,380
536,6684,13216,17,-2391,2558,3242
2220,5628,12048,16.95,-1631,1355,1402
4364,6964,14920,16.95,2355,-1365,3101
-996,6348,18140,16.95,1883,-867,-565
1408,7176,19300,17.05,-193,-250,-3815
1720,5416,15796,17.09,-626,-901,-1120
-2892,5456,17228,17,-1168,-499,-1578
-3128,5888,15244,17,-826,-62,-369
-188,7952,15544,17.05,882,-789,307
2244,8012,17052,16.95,500,2120,334
-1300,6516,16736,17.05,3724,-293,4698
-3296,4136,19240,16.95,-1453,-825,602
-5096,4344,17940,16.95,-1608,-230,297
-1068,5980,16796,16.95,2162,791,-1531
1176,8364,17856,17.05,-5,-1799,506
-924,7120,23076,17,-678,-1419,1598
-1916,5520,14864,17.09,-2189,-953,-785
-1680,5112,12196,17,510,2058,-2539
1244,6836,14616,16.91,1860,149,60
-1032,6116,20856,16.95,2286,-2426,696
-4100,6776,19624,17,-1981,829,-2025
-1112,5404,18696,17.09,-1704,1633,-1373
1256,5796,11764,16.91,-3007,307,-940
2492,9152,13764,17.05,-47,1494,1241
-724,7488,19896,16.95,3610,-958,78
960,6156,16260,16.95,-1536,-1944,-2719
2260,5792,12956,17.05,-185,805,-1921
1028,6412,14012,17,-2195,1770,-1936
-320,7052,14268,17,1176,12,-125
-1044,7744,18020,17,1401,-1075,-904
-2136,8424,14892,17,-1467,1381,-2233
4504,6684,15528,17,-4592,969,-537
2660,5324,13304,16.91,215,1033,97
1692,6500,13028,17,2418,-1633,1389
-916,6588,18684,17,1999,-2357,-1722
836,7472,21560,17,-820,380,-4895
536,6320,18128,17.05,768,-263,-898
1632,6272,11504,17.05,-2271,-249,-1601
696,6604,12028,16.95,380,1042,-643
-220,8172,20580,16.91,1024,-81,-24
716,8344,18392,16.91,-1826,2933,-665
-540,6352,14048,17.05,-2808,1496,1065
-112,5296,14112,17,-1000,577,2205
-108,6304,12420,17.09,1788,-1480,2344
2240,8248,17172,17,1800,-1281,984
640,8496,19732,17.05,1918,-3780,685
2960,5952,17580,17.05,-749,-61,-200
-628,5032,19068,17.05,-2255,-433,-1097
-2868,5528,15908,17,-519,1097,-574
-1872,7624,16376,16.91,1291,64,-1606
1140,9748,17224,17,2456,1561,387
-2548,6632,18076,17,1200,-167,1734
-236,5932,16652,16.95,-1955,861,733
-2752,5080,15556,17.14,-441,722,1399
2668,7584,16700,16.95,2171,-676,1192
-2144,6740,19404,17.05,3489,-1677,-1004
-3212,7552,18588,16.95,-465,-1044,-2592
-368,6576,12900,16.95,-1,856,-2391
568,6632,12428,17.05,-1637,717,-787
704,7484,13564,16.95,1027,449,492
388,8440,18020,17.09,2031,114,743
-480,8580,19272,17,111,2175,-305
-1348,7992,12232,17,-1649,2775,680
-2080,6028,13096,16.95,86,751,2842
-2040,6948,15224,16.95,776,1278,996
1164,8136,15756,16.95,309,-1342,-3941
3376,9680,15712,17.05,-780,-1302,-4699
0,7112,19192,17.05,-384,274,-976
-3384,6612,16312,17,-2393,4703,-2153
-2320,7204,13560,16.91,1437,-731,-64
496,8660,14508,17,1644,-1744,-412
1504,10808,14360,17,-2208,1866,-1051
-1084,8232,16820,16.91,-2343,-291,3570
-3612,5748,14572,17,-1250,-587,3401
-5876,5428,13472,16.91,1450,-423,2402
-1196,7148,14784,17,729,-857,-790
1780,8940,17004,17,288,-683,-2335
1076,7900,18036,16.95,-1370,-318,-833
-1112,6216,16592,16.95,-1804,560,-263
-3812,6204,13828,16.95,340,1064,-876
936,8948,15448,17,781,-720,1053
2140,9260,13996,17,3530,1122,949
-4736,6124,16100,16.91,-1588,-1108,2786
-5392,5632,14124,17,-1214,852,-1765
192,6340,12928,17,2331,-953,1950
-1636,6532,14528,16.95,2306,-2060,357
2136,10524,18400,17.05,2206,-2378,169
-2756,6164,18732,16.95,-206,-1788,685
-2828,5184,15840,17.09,-2768,-191,-2820
-2044,5760,14484,17,712,-548,-544
-1192,7604,14612,17,2139,811,-969
1216,9416,17652,16.95,4581,-259,3456
-5524,5876,21764,16.95,496,-175,4101
-3288,4668,18028,17.05,-3616,934,-279
-1612,5164,14440,16.95,-1632,-746,856
612,7464,13224,17.05,-329,-971,-1033
-1100,8704,18644,17,2672,-976,-923
-1984,7612,16204,17.09,-224,-1508,-1186
-628,5928,13684,17,-1372,998,-298
-2496,5540,12676,17,372,771,-359
1344,8052,14604,17,591,307,811
-1288,6992,22016,16.91,1342,1462,2304
-2440,6836,18236,17,-1139,591,368
-1216,5092,18288,16.95,-2069,446,-769
-1288,5232,15156,17.05,-1762,31,-4829
-1424,6680,13676,17.05,2075,-334,-323
-1032,8156,18300,16.95,983,-1384,-448
-1480,7560,20040,17.05,-2875,-800,-2355
1728,5800,15952,16.95,-2547,643,-940
2688,6700,12996,16.95,-1189,205,620
300,6480,15156,16.95,2032,-932,2176
1116,7564,18932,16.95,940,286,706
1996,9812,16008,17,-1844,1958,-1187
1388,6776,14196,17.05,-1624,961,3244
1368,5508,13804,16.95,-2693,497,1107
972,5836,12916,16.86,1558,-340,1610
-452,6260,16480,17.05,2956,804,98
-1524,6676,20236,16.95,-1629,-854,-5070
1640,6252,18068,16.95,-637,1427,-2866
380,5284,15544,16.95,237,-343,-2610
-2636,5628,13032,17,1087,-563,-867
-340,8068,16724,17,125,-252,-438
2988,9700,15356,16.95,1454,1842,1532
3668,8044,19252,16.95,1126,-317,5421
-2304,4076,16280,16.95,-1112,102,305
-1868,4868,14280,16.95,682,-1121,2043
884,6776,17112,16.86,393,-1413,1
6912,9756,15648,16.95,-555,-2557,-2410
-792,5932,19496,16.95,-932,-756,-1894
-1980,4792,17104,17.05,-1241,591,-1278
-52,5080,13672,16.95,-1089,1561,-1946
468,8048,15060,16.95,640,150,488
-2304,6892,20688,17,1651,282,1927
-2960,5312,21372,17.09,-2546,-524,737
-1096,5196,16640,17,-2250,631,-196
-140,5084,12060,17,-473,904,592
1580,6840,13140,16.95,633,-99,815
472,6880,18736,16.95,2934,-1231,241
-184,6352,19940,17.05,-1438,-968,-1474
1792,5512,12428,17,-429,1039,-2890
4236,5924,13440,16.91,-154,-810,-1476
292,6540,16304,17,1030,905,28
-1504,6808,17112,17,3428,214,160
-3112,6516,14436,17,-3884,2891,-3269
1508,7708,12820,17.05,-2197,2546,187
-92,5872,15048,17,-231,-15,1069
580,5784,13300,16.91,671,-1409,1087
1836,7272,16524,16.91,385,-1263,-1544
2272,8392,17880,16.95,-1069,-298,-3537
276,6048,20384,16.95,-1495,-1064,-2488
-232,5532,16016,16.91,-2333,-697,-2431
-3384,5016,13080,16.95,-649,-180,-1360
-164,8360,15496,16.95,950,1024,381
-2596,7612,20988,17.05,3789,1369,2533
-6712,5796,21068,16.95,1863,2019,3599
-732,6188,10828,16.95,-2156,2017,1408
3700,7024,12368,17,-885,935,624
1888,6160,15536,16.91,2114,-2506,2967
124,7044,17552,16.91,1232,-2089,-1677
-1296,7796,19724,16.91,-1555,-1540,-3795
-1808,6524,14224,16.91,-3444,-88,-749
-3516,4640,18296,17,-2839,662,-3655
596,7396,17116,17,2235,1555,-791
7292,9900,13400,17.05,2907,3701,367
1652,7916,16228,16.91,-2879,-1678,554
-160,6780,14384,17.05,-745,-301,1316
1092,5788,13384,17.05,1146,2114,-1323
212,6272,18664,17,1993,259,-415
-216,7032,24828,17,-163,937,-1315
1152,6560,18420,17.05,-2044,-1047,-2467
372,6464,13340,16.95,784,-2188,956
1028,7076,15292,16.95,2155,-1180,1508
-4940,8328,21396,17.05,2632,1543,2858
1560,5276,23404,17,1346,-1349,5366
-5896,3524,22232,17,-1587,-1034,1583
-576,4284,10020,17.09,1495,638,183
4060,7528,12896,17,1878,-1369,1520
6792,8232,20200,17,379,-649,-3681
1740,5336,18536,17,-1614,642,-2146
24,5168,14460,16.91,-1802,-301,-1612
-544,5088,13056,17,300,56,-119
-1172,7352,16832,17.05,3649,968,-463
916,8624,16760,17.05,88,1656,-168
-1240,5016,15388,17.05,-750,303,483
-2156,4676,12872,16.95,-2028,-662,140
-996,4956,12660,17.09,1668,-1423,2160
-1252,5776,19948,17,1578,-2152,-2198
2640,7524,20276,17.09,1075,-856,-2984
4136,6192,16400,17.05,553,-1946,524
2796,5440,14196,17.05,-3398,-523,-662
-2136,5312,15220,16.95,400,55,338
-1652,6876,18464,17.09,1736,1284,-1506
876,9456,16448,17,-412,2460,-963
952,6892,16128,17,-604,472,3246
-1336,4076,16080,17.05,-2881,-1231,1021
-3376,3980,15680,16.95,-1071,-1490,2068
-84,6256,15844,16.95,152,-115,-566
2828,7928,21236,17.05,323,-1564,-231
-1468,5468,21160,17,-1867,-1036,-2674
-152,3932,13080,17,-2952,471,-4354
1268,5692,11160,17,-1615,598,-1877
-20,6676,16272,17,1258,556,-508
-476,6796,17360,17.05,2081,1658,-253
-2756,5520,23104,17.05,-2232,1234,1523
852,4744,17436,16.95,-2496,1796,-88
1544,4656,12772,17.05,-3038,1304,997
2500,6152,14088,17.05,446,-634,1001
-2204,5736,17692,17,1158,-533,-98
-120,6676,22572,17,-3358,-1254,-2729
6368,5984,17412,17.09,261,122,140
-112,4720,17480,17,-162,-1437,-309
-252,6236,15016,17,1148,-1098,-122
596,7828,20352,17,3621,1888,338
-728,7924,18400,16.95,3521,4194,-249
1512,5968,19568,16.95,866,-448,4328
-2664,3760,22220,17.05,-2853,-1409,922
-916,5396,18200,16.95,-1020,-642,-2018
4888,7000,14212,16.95,1663,633,-1043
9128,8132,16148,17.09,270,-2183,-4619
1796,6800,17568,17.09,-2202,-1521,-3667
1148,3756,12936,17,-3842,1207,-6178
-4716,5372,14116,17.09,-2205,589,-3995
-656,8384,15516,17,1928,1557,-3155
2176,8796,14224,16.95,8802,-83,1936
2556,8256,15012,16.95,2053,2191,4814
-452,5640,17732,16.95,-3484,-144,2303
-2780,4412,16312,17.05,-1946,-598,-1555
2476,6512,15696,16.91,12,177,-1737
4012,8500,17028,17,2250,-1783,-1503
1380,5384,19676,16.95,-1275,-2361,-1967
-1548,5692,18936,16.95,-4726,-862,-4788
-6700,5344,11760,17.05,-2309,2091,-3345
-812,8044,14404,17.05,1451,2096,-828
2364,8924,15000,17.09,-536,2968,-444
1148,7380,15592,16.91,-1562,1677,2843
-388,5052,14936,17,-774,794,1971
668,4560,15108,17.09,2087,-2037,3225
-2680,5512,19840,17.05,2841,-2065,-1925
-4924,6184,21260,17.05,-5067,-2015,-4847
3124,6012,12820,17.05,-1375,157,-2098
1660,6240,11032,16.95,211,-863,-2645
1100,7448,16704,17.05,1079,-636,544
-2968,6008,21360,16.95,1631,1850,1513
-5540,4920,24924,17.09,-4959,641,2275
6108,5972,13972,17.09,-3012,-5,-2506
2520,5788,13696,17.05,180,-128,-1878
3928,7312,14032,17.05,1559,-1594,-1457
2256,7804,19208,17.05,1635,-2026,-1876
-828,5212,16432,17.05,557,167,-4956
2460,6084,13864,17.09,-1009,1031,-5006
-236,5732,11928,17,-65,2206,-4476
-2968,5740,15148,17.05,-746,-1188,958
1248,7256,19584,17.05,956,1995,2735
-2240,4384,29768,17.09,-2515,3578,5332
212,4536,14456,17.09,-2532,880,-1250
3240,5072,13736,17.05,-668,844,-2966
4612,6116,12936,17.05,2513,-2235,-1725
2300,6752,19704,17.05,2908,-1559,-408
-1628,6904,20456,17.05,-1889,-3299,-6071
488,4872,16704,17,-1836,-1326,-3582
1780,4852,16448,17.09,-618,723,-2190
868,6268,15488,17.09,15,-951,-1321
-1656,6732,16428,17.05,1916,766,-2366
916,7720,15084,17.05,-1655,539,-1663
808,6036,15592,17,-1510,1654,1846
-2324,4596,13812,17.09,898,951,-2492
-5048,3872,13636,17,936,-1758,-3065
-916,6380,14268,17.09,2394,-1656,-2160
3872,8080,19364,17.05,2268,-2837,-2581
-1620,4812,18516,17.05,-4789,-1719,-6720
548,4196,12324,16.95,-1343,-766,-4996
4532,6264,11552,17.05,1598,-3368,-1164
-568,6184,14448,17,116,-993,73
1964,5980,20964,17.19,3270,531,-1134
-2148,5244,20800,17,-1703,-70,-4800
1076,5388,16508,17.09,-417,-373,-1316
20,5000,13528,17.05,90,733,-1693
-776,5168,14316,17.05,1370,-472,1513
728,5784,15920,17,-166,594,-1337
4432,8304,17252,17,1007,-1878,-5096
12,5456,18812,17,-407,-4747,-2306
264,5168,15044,17,-2476,-658,-3787
396,4876,12912,17.05,-668,-377,-2249
-1300,6780,16716,17.09,2134,-298,-1509
3344,7680,18192,17,3496,285,607
-1096,4456,21108,17,-1305,-856,-689
1972,5124,15648,17.05,-1697,-1535,-346
-796,4492,15564,16.95,-293,-386,-1099
-1708,5480,15548,17.05,1106,-805,-2457
3280,7316,19128,17,2449,-1854,-3461
-3616,4832,20936,17.09,-1149,-3721,-3385
-1480,3184,15104,17.05,-2039,13,-3242
2028,5180,12128,16.95,-1096,1013,-3367
1936,7504,16396,17,1117,-103,-1331
-1448,7352,19040,17.09,3072,537,1134
-2904,5680,20876,17,-1912,-688,2716
-36,4460,15436,17.05,-3369,264,-924
-696,5016,14648,17.05,567,-400,1820
2776,6324,15192,17,2874,-2446,1843
1852,7032,18216,17.05,2401,-1389,-1141
-1236,6108,16460,17.09,61,241,-2980
-432,4804,14880,17.05,-3025,1018,-1386
-2076,4692,12572,17.09,-1365,2243,-1133
1584,7752,15204,17.09,330,672,902
-900,6304,21440,17.14,4804,815,2278
-1252,5000,20732,17.05,487,-1691,3058
-1916,4412,17236,17,-2950,468,678
40,4456,14312,17.09,-2173,2464,-794
3420,6396,15832,17.09,2339,-2116,1114
6416,7304,18404,17.14,3069,-1519,-1196
1680,6088,19828,17.05,-874,-4763,-1017
1544,3636,15732,17.05,-4298,2056,-3409
-396,5144,10612,17.05,-2036,854,-4198
1896,8136,15436,17,1176,160,217
396,6840,19340,17,4618,1752,1394
-968,5228,19040,17.09,157,572,2959
-152,4140,16184,16.95,-2595,-551,-94
1336,4780,14228,17.05,-1033,1827,297
3892,6536,14708,17.09,1984,-1126,2063
-1044,6120,20424,17.09,-1724,-2475,548
-3480,3380,22068,17.09,-1752,-365,-1647
-212,3872,15312,17,-1222,1295,-3741
808,5428,11520,17.14,-578,1592,-611
400,6040,17488,17.14,728,-126,1797
-2368,6164,20776,17.05,1200,-1,874
-5428,6072,22332,17.09,-1483,1817,1913
-1456,4880,15200,17.09,-1967,-1237,3617
1640,4216,12888,17.19,-947,1006,2992
1756,5720,14316,17,2790,-976,2015
-1824,5856,21184,17.09,1212,-985,-976
-84,6036,18436,17.05,883,32,-4190
2560,4748,12548,17.14,-675,891,-2826
2416,5788,14096,17.14,-1262,-689,-1257
-328,6080,15596,17.05,-755,-435,-242
-100,6468,18840,17.09,2946,672,143
-872,6652,19556,17.09,-695,2429,-145
456,5708,13836,17.09,-1825,459,-193
2444,4712,13936,17.14,-177,1882,-1072
972,5320,12636,17.05,1987,-140,381
-2088,5116,20144,17.14,154,-948,-1945
-420,5708,21556,17.05,-1607,-439,-3351
3172,4188,14688,17.09,1976,600,-2034
3212,5388,15000,17.09,1331,-182,-1270
-2996,6328,16772,17.05,139,-1516,130
1128,8660,18500,17.14,1795,1587,295
16,6512,16864,17.09,-1651,159,149
2612,6256,15008,17.09,-1006,245,3504
716,4512,16624,17.05,-751,-1379,2221
1628,5764,14540,17.05,968,-2613,2104
120,5460,17868,17.14,327,-1000,-1492
264,6040,21360,17.05,-1001,-280,-4727
1672,4052,18304,17.09,2056,-380,-1038
-484,4644,17792,17.09,-1571,739,-2192
-1524,5756,15156,17.05,-649,1533,-1718
-440,7972,16544,17.14,2082,1675,13
1344,8020,16012,17.14,2588,3130,2055
-708,7260,18720,17.14,1223,1092,4351
-696,4832,13396,17.09,-732,426,3414
-3152,4448,16760,17.19,483,98,2738
-100,5328,13444,17.05,1954,1162,87
5104,7688,17156,17.05,-595,49,-3503
-20,5508,23172,17.14,-500,-2170,-1147
-2612,4216,15472,17.19,-1853,-637,-2193
668,5544,13168,17.09,-357,1193,-2670
-2240,7500,15964,17.14,-810,821,-826
172,9772,18740,17.05,1898,1964,5506
-1936,4892,19952,17.05,2215,-1418,5711
-964,4076,14876,17.05,-2737,1435,2005
116,5664,13980,17.05,-1717,2586,1658
3056,6404,16492,17.09,594,-1143,292
-572,6560,20468,17.09,933,-2829,-79
-60,6436,15696,17.05,-1493,-2177,-5222
3036,5960,11752,17.05,-1057,1874,-4619
2092,6208,13560,17.14,537,1037,-2959
1564,6704,16228,17.14,2674,1074,-1014
-1696,6628,17960,17.05,2304,545,399
-1764,7908,17804,17.05,-3198,2114,1512
712,5776,14236,17.05,-1519,1597,4083
1824,4576,12404,17.19,-2220,578,3423
3024,5488,12720,17.09,1060,-610,3841
220,5904,19956,17.09,1867,-2384,-396
-388,5572,19996,17.05,-1180,-615,-2988
1404,4300,15128,17.05,1148,-855,-527
-2472,4720,15328,17.19,-338,337,-4019
-812,6584,13764,17.09,2013,770,-1044
-60,7892,16648,17.05,3138,803,163
1048,8392,13508,17.09,-1554,2482,785
268,6568,15652,17.09,-3067,2050,1784
-1512,5048,15644,17.05,-1219,515,1182
-428,4820,16612,17.14,1085,-951,2266
260,6592,18864,17.19,1605,-328,-808
5692,7544,18572,17.05,1574,-3443,-532
-1020,3600,20172,17.09,676,-105,83
-1604,5000,16264,17.14,-1425,-516,-395
-1944,5864,14116,17.05,-114,691,-405
672,7280,21704,17.14,2792,-888,-16
3320,8752,13828,17.19,1589,2110,935
1408,6016,11568,17.09,1150,-524,3559
-240,4908,14520,17.09,-2500,223,2148
1632,6552,15316,17.09,-1453,-671,1458
-1432,6012,19136,17.09,4720,1993,-1159
6476,7380,12840,17.09,6744,-6251,-5564
2488,6516,24580,17.19,-5449,-2376,483
684,6496,16604,17.09,-2682,-1094,-1739
136,5896,14044,17.09,-1109,707,-369
720,8112,18292,17.09,1490,-1038,780
1500,9388,16528,17.09,87,1538,845
-712,6780,12960,17.19,-917,982,2857
-1644,5080,16724,17.19,-1256,851,2641
-1536,5124,13644,17.09,577,-1880,1340
3412,6828,18044,17.24,433,-366,332
1972,6684,19492,17.14,-1174,-495,-3325
3304,4204,20300,17.05,759,-876,160
-528,4452,18356,17.14,-4756,546,-3114
-184,5372,15876,17.05,-1132,-554,-1293
-492,8092,18256,17.05,2142,-1398,-2139
3012,7960,14832,17.05,325,539,-459
-460,6232,16308,17.05,-411,848,1812
484,4960,13596,17.19,-663,82,285
1124,5100,14156,17.09,2024,-217,1464
-644,6032,16572,17.09,2243,153,39
3612,8292,18676,17.05,-625,-108,-2552
468,4592,19584,17.09,-1327,-180,541
1436,4956,16348,17.09,-3117,141,-639
-4136,5064,12948,17.05,-229,872,-152
-1592,8192,15576,17.14,1886,1054,-241
1404,8424,17140,17.05,3986,2683,3165
-32,5624,17508,17.09,1945,414,5000
1696,4680,15380,17.09,-3238,670,2247
-888,4484,15388,17.14,1628,872,3320
2196,5468,15720,17.19,944,-330,337
5548,8028,17012,17.09,-805,21,-4291
2744,5492,19492,17.09,1819,-1987,505
732,4860,18044,17.14,-3289,-932,-2231
-2328,4944,13932,17,580,340,-348
316,7444,15328,17.09,2091,775,-549
-12,7420,19032,17.19,829,247,1387
-3092,4816,19208,17.14,-172,8,2711
-1780,3576,17416,17.05,-1628,542,-453
-1516,4296,15692,17.05,-1264,-349,764
520,6788,15940,17.14,1331,-35,-363
1624,7044,20544,17.14,1308,-1422,-4
1824,5420,16836,17.14,746,610,-2397
1164,4888,14908,17.14,-2629,600,-3258
-1716,4432,13168,17.14,-1373,1213,-1656
1052,6616,16644,17.14,-610,686,-1449
-3160,5972,18920,17.14,2675,550,478
-3668,4684,22672,17.09,-1182,-741,-127
-416,4536,16712,17.09,-3882,1080,-263
696,4256,13728,17.14,-2890,250,-459
3240,6568,13792,17.09,1475,261,-309
992,6504,18224,17.09,2453,-2048,539
-544,5612,17128,17.19,137,-593,-1113
204,4712,15788,17.05,-937,-784,-1234
652,5268,12656,17,-1119,1078,-2112
2848,7004,12748,17.09,-268,837,-238
-1128,7020,18948,17.09,1877,377,-584
-408,7232,20120,17.14,-2824,1631,-805
232,5632,14624,17.19,-1427,111,3456
-684,3404,16116,17.19,-2259,1302,2031
1788,4908,12092,17.09,1009,-156,1546
228,5884,19188,17.09,99,-764,-1932
644,5772,22208,17.09,-660,-434,-4672
2128,3780,17504,17.09,1455,65,-428
632,4708,14900,17.09,-567,32,-1901
-2532,4824,13172,17.05,829,-429,521
-916,7056,18484,17.14,1919,492,-1426
228,7572,16684,17.14,-190,1543,1672
728,5184,14536,17.14,-858,307,2267
700,4908,15304,17.05,-610,-412,2034
-468,4312,12528,17.09,1668,-985,1919
1628,6232,18592,17.09,447,-371,-1431
2012,7156,18976,17.09,-743,-295,-2140
-268,3908,18052,17.19,-187,-222,-1614
1440,5640,17436,17.05,-1282,538,-1453
-1764,4616,12072,17.14,242,158,675
1300,7436,16224,17.14,1334,-133,-41
480,7180,17880,17,4019,1520,1351
-1144,5276,15908,17.09,907,645,638
908,4852,15140,17.09,-1322,504,-292
-1780,4516,15020,17.09,-183,-559,647
-1372,5880,16472,17.14,1716,195,-177
676,7564,18064,17.24,1806,-1415,711
204,6636,16792,17.05,393,-2305,-1449
8,5024,12312,17.14,-2671,191,-2351
-1616,4836,12552,17.19,-1217,1469,-1087
2548,7068,14272,17.09,-249,504,-415
-1604,5124,23008,17.19,2933,967,2291
-3920,5032,24084,17.09,170,516,1351
-352,3128,19456,17.09,-5129,699,1243
200,4204,13744,17.14,-1785,-697,-626
380,6332,12824,17.05,1700,-1545,195
-2412,5436,18836,16.95,2541,-625,-1544
-2216,4712,20316,17.14,-1478,-737,303
928,4264,15780,17.05,-1382,899,-3302
-1720,4104,12892,17.05,-664,1083,-1580
2120,6476,15180,17.14,1149,159,296
248,6628,19388,17.14,2799,530,441
-5116,4568,21972,17.05,-1402,587,672
-1444,4416,16916,17.09,-3810,-591,1708
2200,4100,11940,17.09,-2185,2353,-16
3336,6300,14184,17.14,1125,249,275
-2300,5432,19280,17.14,1349,-439,-899
-2724,4788,23800,17.14,-1278,-1370,-1394
756,3860,18152,17.14,-371,1043,-733
564,5076,17688,17.09,-735,-646,754
-4108,4500,14972,17.09,-261,-360,1177
-584,6904,19692,17.05,369,734,-609
468,6564,17164,17.05,1360,2948,1343
-1696,5520,16344,17.09,399,831,4296
-3020,3688,17444,17.09,-1846,471,1704
-3120,4064,15960,17.14,334,-741,2475
-2200,5272,16740,17.09,681,-2480,1149
2028,6648,21596,17.09,1119,-1764,-642
844,4568,23572,17.09,-1135,-1442,-1431
-2412,3676,17332,17.14,-2517,-1214,-3104
-2488,4452,14240,17.09,-1011,-79,-1421
-584,7348,15260,17.09,1138,682,590
-1496,6764,19880,17.14,3341,1158,2444
-3764,4956,17808,17.05,-343,-570,2645
-2264,4260,18612,17.14,-2997,-880,965
-3024,3528,15796,17.09,227,-1177,593
296,5856,16036,17.14,1430,905,-1589
5784,7416,18208,17.05,2119,-994,-2370
-1016,4108,20968,17.14,-1606,-907,-3682
308,5016,15540,17.09,-1667,-986,-2549
-2804,4120,12208,17.09,-1575,565,-1817
1264,6800,16100,17.09,617,1124,-1122
-484,6336,20360,17.05,504,1162,2563
-5452,5272,20916,17.14,-971,1664,1956
-1332,3920,14256,17.09,-2638,678,2561
1608,4872,13024,17.09,-1686,64,1212
6276,5864,16108,17.05,33,-1787,1277
-1956,5784,20772,17.05,3114,-1074,-204
-3948,4152,19544,17.14,-1824,63,-2096
1412,4516,15284,17.05,364,533,-607
-116,4728,12452,17,1796,501,448
1544,6312,15052,17,-75,176,771
292,7004,20448,17.05,3802,485,1095
-3844,6092,17996,17.05,-1807,2334,-1260
-2648,3856,14204,17.14,-4237,2621,-469
-484,4436,13372,17.09,-951,370,-16
-768,5908,14556,17.09,3400,-1850,-417
-2484,5148,18108,17,748,-525,-490
-2180,5288,24504,17.05,-3734,190,-4112
-1340,4852,16612,17.05,-887,-392,-672
-624,5032,12412,17.09,-1423,1219,-2516
460,6480,15584,17.09,-689,-384,1011
-1140,5824,18648,17.05,2142,947,105
-3384,6176,19468,17.05,-1068,1845,680
-1024,4808,16516,16.95,-2949,1225,2216
-2432,3644,17320,17.05,-1767,491,1681
-2256,4612,15560,17.05,2188,-1231,976
612,6128,19472,17.09,-161,-1514,-1449
-2468,4488,18064,17,-2997,1707,-5210
1228,4372,17556,17,-1065,1316,-1152
2088,5264,14316,16.95,2187,273,474
-1040,5344,15244,17.05,598,353,-140
-912,6932,18416,17.05,1767,765,1071
1512,8084,15516,17,-763,1406,-1222
1556,6124,18212,17.09,-769,710,4844
-1616,3628,17192,17.05,-2417,-813,2062
344,4784,16484,16.95,210,-1380,1524
2656,6040,17232,17.05,2239,-629,-2125
-1008,6728,20412,16.95,1927,-1647,-1088
-2272,6072,17536,17.05,-1499,-1002,-3423
-904,4988,16368,16.95,-2080,-859,-1142
-1020,5176,11944,17.09,-717,856,-1656
740,7632,15168,17,2073,1415,-519
-3468,5516,18076,17,3348,1067,1237
-3912,5164,21904,16.95,-1040,-768,2584
-780,4228,17792,17.09,-2674,88,1405
-224,4324,14000,16.95,-2162,1524,97
1172,6376,13308,16.95,-216,-392,-616
-1120,6368,18288,16.95,251,-1471,-387
-3548,4104,22608,16.95,-2061,-184,-1859
680,4244,14700,16.95,-527,1793,-1303
1324,5144,11384,17.05,-575,680,-862
352,5588,14568,17,-135,635,380
148,6088,20732,17,814,53,393
-4712,5548,22196,16.95,-735,1437,-1017
-728,5152,16612,16.95,-1489,333,1072
-468,5680,13412,17,1013,2399,873
1708,5544,12652,17,2661,-929,3823
-1748,6088,16692,17,273,-1477,336
232,6960,18356,17,-1546,-343,-2692
2364,4144,20356,16.95,-314,-3255,189
-1900,4328,20436,16.95,-3509,-1470,-3740
-3696,4652,15088,16.95,-995,-68,-1022
216,6844,16112,17.05,1132,829,-1378
1224,6916,17664,16.91,3216,1271,1658
-204,5844,18776,17,808,-1258,3261
-2888,3932,17000,16.91,-2360,134,-149
-2828,3896,14228,16.95,-55,1461,-114
-72,6128,14160,16.95,537,764,-1748
4564,8288,17164,16.91,2276,-2810,229
200,5016,19064,17,-1100,-263,-2786
112,4184,14852,16.91,-2394,-387,-3628
-1320,4408,12168,16.95,-1735,109,-2795
2344,7404,16700,16.91,1236,-1233,-744
-888,5912,20740,17,2582,-83,1763
-736,5400,21652,16.81,993,-479,2296
-468,3840,15780,16.95,-2276,1101,-873
-208,4176,13016,16.95,-1398,2100,-662
460,5816,15072,16.95,624,-19,-1093
-1812,5248,21112,16.86,1302,-1434,-1678
-492,5044,20616,16.86,-73,330,-2146
1404,4768,15976,17,-544,-415,-1282
512,5336,13080,17,12,1565,-1872
1864,6808,13644,16.95,1187,165,179
-364,6476,17844,17,2694,651,-303
-3360,6664,18132,16.86,-3456,261,909
804,5652,15892,16.95,-2148,382,1703
624,4916,14712,16.95,-1406,1849,1107
-48,5368,14008,16.91,2020,-1078,2178
-2496,5460,18388,16.91,2028,-580,-1339
1316,6280,19784,16.95,-1871,-1190,-3327
1308,5084,18608,16.81,143,-546,-149
-492,5700,16200,16.86,1148,212,-2017
-4084,5412,13632,16.86,1153,456,-2372
132,8704,13464,16.95,2451,2040,-602
1724,7760,15712,16.95,1053,1737,1965
-2104,6312,17468,16.86,-2764,811,2375
-344,5704,15636,16.95,-889,841,2468
-2452,4576,15368,16.95,799,-1740,1869
364,6964,13908,16.95,775,-462,-1326
3188,8932,18392,16.95,1943,-2515,1365
-700,6740,16776,16.86,-347,-3613,-2524
-2528,5296,14244,16.81,-1863,9,-2060
-2840,5252,12268,16.91,82,1355,-2111
580,7932,16160,16.91,1791,1308,-866
-2560,7556,19260,16.91,2133,1983,2529
-6384,5128,23876,16.91,-1065,-321,3508
-2132,4692,19440,16.91,-3665,1591,-506
-120,5112,13020,16.91,-1013,486,-635
-260,6580,14644,16.86,1201,-1642,-130
-3044,7544,19032,17,1229,-3567,636
-984,6752,18148,16.91,517,-1871,-3172
2608,6548,13004,16.95,-2544,-838,-3543
2744,6632,11576,16.86,-727,874,-1911
992,7808,15864,16.86,1267,-209,1985
-2748,6988,19884,16.91,1848,1501,726
-4164,7544,18880,16.95,-573,1651,1437
-936,6312,14056,16.86,-490,2119,3201
3076,6408,12380,16.81,192,1246,1664
3200,6708,15244,16.91,1152,-1373,1902
-832,6884,19136,16.81,2,-1123,-1180
-2292,6896,19360,16.86,-1822,905,-4395
-40,6132,16912,16.86,-32,680,-1412
-1168,5480,14672,16.81,-1013,-129,-1166
-68,6544,13668,16.81,-862,-835,350
-1636,7844,18560,16.86,424,389,660
3928,9596,14908,16.86,2990,461,2831
1396,6992,18420,16.81,4368,-1035,6908
-2052,4168,16688,16.81,-145,-174,47
-432,5512,11472,16.95,-1616,-431,-894
736,7180,12432,16.86,598,127,-934
1184,8456,18928,16.91,-121,-1913,-1181
504,6368,20160,16.86,-955,-694,-1387
800,5316,15592,16.86,-2942,-357,-2528
-1956,4500,14012,16.86,-679,-281,-1453
216,7280,15472,16.86,995,212,-649
-1620,6492,18972,16.91,1309,386,1430
-2740,5268,23128,16.91,-1385,186,909
-1200,4924,16712,16.95,-2783,-129,1767
812,5028,12892,16.95,-801,178,1285
252,5816,14084,16.91,401,357,-379
-824,6656,16964,16.91,105,-1155,-913
-1408,4888,21680,16.77,-2281,-1046,-3367
3580,5280,17652,16.86,479,1563,-2008
948,5340,14564,17,860,-649,-219
-1312,5664,11744,16.77,-82,-884,168
460,7980,18676,16.95,288,1387,-510
3496,8340,14960,16.91,1366,2587,40
940,5376,17756,16.91,-309,525,2040
-908,4392,16200,16.86,-142,-73,-89
-296,4736,12952,16.77,1911,-681,915
1396,6508,16176,16.91,1201,729,-667
2636,7728,20028,16.86,1636,-2194,-618
324,6004,16392,16.86,-886,-1681,-2148
-1096,4992,16240,16.86,-3648,-44,-2310
-1512,5000,12704,17,-1632,1360,-1676
344,7600,17092,16.91,65,505,1046
-600,6296,20572,16.95,2068,88,1307
-3756,5212,22304,16.91,-440,17,1315
216,4948,14780,16.91,-4037,2630,-995
860,5348,14452,16.86,926,692,431
192,5064,12968,16.95,598,-698,46
-156,6856,18560,16.91,-1658,-163,-1612
-404,6404,27256,16.86,-907,-1114,-1128
2960,4016,13628,16.86,1594,1088,-1075
3136,5592,16356,16.86,123,-447,-214
-948,6120,16424,16.91,1541,-592,268
-552,7548,16280,16.95,2447,-114,481
1088,7636,16816,16.86,-248,1287,571
408,5768,18200,16.91,-128,857,4583
-1272,4004,16400,16.91,-1136,-31,1076
-1624,4604,15096,16.95,659,-1142,1878
700,6328,16816,16.86,1877,128,93
2344,7516,19412,16.86,1387,-1850,989
2292,6508,18144,16.91,-1361,-671,-2185
64,5236,14884,16.81,-1292,630,-1784
-424,4912,14012,16.95,-1156,1309,-2892
1740,7164,15384,16.86,-267,297,-591
804,7060,17088,16.81,2212,332,319
-768,7152,16936,16.91,-2116,1958,1297
1576,6632,11624,16.95,47,1642,-150
1064,5824,13848,16.91,-1328,1104,596
1252,5724,11928,16.81,952,-484,258
1100,6840,16032,16.95,72,-726,-902
6300,8976,17496,16.86,1768,-2209,-458
3620,7168,16796,16.91,73,-2061,-528
-968,4836,15840,16.86,-2850,5,-2162
-2356,4916,12780,16.95,-476,1208,-693
3324,7992,15208,16.91,245,-895,154
-2372,6172,20856,16.77,2101,504,1347
-1924,5280,22232,16.86,372,-162,1571
-148,5100,17628,16.95,-2308,1690,-44
104,4112,10692,17,-683,312,-198
648,6504,16064,16.91,-393,-112,1173
-1588,6064,19656,16.95,398,-1232,144
-2388,5400,21756,16.95,-663,-509,-1415
936,5060,18324,16.91,-206,9,-579
328,5540,14564,16.95,70,1396,-1615
2320,6272,14276,16.86,746,332,277
-152,7280,16384,16.91,1895,1120,-665
1972,8700,14800,17,-382,1415,411
-536,5896,17000,16.86,-1523,317,2153
1812,5716,14420,16.95,-1090,592,42
-448,5468,11724,16.81,1934,-1164,1485
-932,6080,17864,16.91,1019,-391,848
3124,7684,20264,16.86,-1156,1,-82
-300,4456,22280,16.95,490,334,-867
-636,4688,15848,16.95,-1210,-714,-1805
-1616,4888,13748,16.86,1136,-741,-2562
712,7760,15984,16.86,974,-991,-187
1268,7308,18700,16.91,3890,1049,1808
-1796,5468,19556,16.81,-746,871,1598
132,4736,17912,16.81,-2534,-604,-168
52,4796,12564,16.91,-529,296,-1764
140,6592,16224,16.86,-255,-823,-1787
-1716,6640,17756,16.95,552,-1636,-73
-716,5748,19980,16.95,143,41,-2250
520,5484,16596,16.81,-496,-168,-2178
1756,6044,12328,16.91,-90,481,-1702
1916,6492,13740,16.86,145,91,600
-588,6984,16864,16.95,1808,806,199
1044,7816,18292,16.86,-391,779,1170
28,6336,14176,16.95,-1117,1425,1874
1220,6020,15472,16.91,-674,485,1014
1200,5496,12968,16.91,-132,305,1856
1476,6740,15612,16.86,-418,-212,-845
2208,7268,17452,16.95,-1603,-596,-2659
-124,4432,18552,16.91,-748,-56,-1460
136,5304,17532,16.91,-1796,-194,-1050
-1900,4864,12928,16.95,-6,-463,-162
2324,7452,16476,17,1512,795,694
-1824,5728,19668,16.91,2620,778,1777
-208,4784,22324,16.95,-147,-471,1784
0,4628,17672,16.86,-942,-335,775
-2616,4136,15352,16.91,486,-406,135
-2572,5084,16580,16.95,915,-408,-361
-2144,6040,20336,16.86,-600,-1052,-1305
-1780,5820,21788,16.95,-1433,-855,-1265
1900,4140,16124,16.91,975,1385,79
2160,5344,13676,16.91,296,599,-936
876,5840,13144,17,342,-542,593
936,7120,15456,16.86,421,156,174
-400,6660,19952,16.91,2099,999,1453
-2384,5744,20660,16.91,-197,-291,1729
460,4792,16976,16.91,-2631,794,177
1128,5120,12980,16.86,-499,1559,199
532,6256,14212,16.95,2042,-853,-343
-2628,6756,19280,16.95,1377,-1244,-263
-332,6212,18928,16.95,60,-734,-1687
3592,6584,11844,16.91,1725,-62,-250
1320,5796,14896,16.91,-266,345,271
1740,6960,15876,17,641,-661,802
3652,7704,15172,17.05,2636,686,-129
4248,8460,14984,16.95,1681,2118,863
-1332,6400,15160,16.91,133,629,1990
2812,6008,15220,16.91,-1558,361,178
-504,5400,14572,16.91,1880,-1688,3266
504,6632,16476,16.95,1968,-321,-1482
1092,7592,16916,16.95,713,-158,-1624
-1536,5308,21736,17.05,-1788,148,-2313
-1904,4636,13604,17.05,-3330,538,-4560
-2992,5688,12248,17,-1010,691,-2990
-2796,7384,16276,16.91,367,218,120
-1980,7124,16968,16.91,5042,-1322,3452
-1520,7020,17624,17,-1371,1123,2084
-2940,4352,16480,16.95,-2228,800,1252
240,4900,15692,16.95,-1314,-1132,2963
784,6880,16008,16.95,1841,1726,-219
-48,7908,17040,16.95,1519,-1608,2291
-2424,6788,16556,16.95,171,-1089,-759
784,5784,13956,16.91,-277,1532,-1668
1512,6360,13764,16.91,-345,1289,-926
716,6696,14948,17,1605,-1006,767
-976,6564,18136,16.86,1833,-901,1042
-3136,7664,17004,16.95,-2972,1480,61
-416,6172,18496,16.86,-2393,2027,1213
3152,6292,12748,16.91,-966,133,1315
788,6020,13788,17,1325,-465,247
812,7640,15932,17,1403,-1732,-930
1156,7352,20488,16.95,610,767,-4941
2412,6048,17964,16.95,1109,-950,614
-452,5020,15832,17,-1099,-671,-765
-3396,5544,14240,16.91,296,-700,344
-500,7924,18304,16.95,1357,794,-1103
-988,8052,15936,16.95,2882,1236,996
-1592,7072,19128,17,-561,257,2619
220,5776,15880,16.95,-2925,-630,1206
-4,4800,13320,17.05,199,-1438,2177
1112,6992,16244,17.05,676,-487,-255
5616,9008,20544,16.91,1598,-1565,-142
3308,7320,17996,17,-1609,-2670,-2180
-1320,4932,14648,16.91,-1779,-772,-1838
-2208,5588,11832,17,65,1766,-2134
3920,8812,14468,16.95,320,1954,-307
1844,7556,17992,16.91,2331,679,180
-4020,6760,20492,17,-2129,143,2899
-1488,5844,16996,16.95,-1873,2018,2345
-48,5224,13748,17.05,-352,813,1759
1876,6512,16732,16.95,1966,-1686,570
-3132,6468,18944,16.91,1191,-1965,-2382
-1072,6528,17908,17,-1324,-658,-2952
1796,6096,15236,16.95,1801,1448,-475
496,5652,12624,16.95,1739,-210,-349
1432,7284,16912,16.91,-1802,-551,-605
1556,8856,18776,16.95,3453,1009,-299
-452,8040,16848,17.05,-816,1244,-293
-1536,5744,15776,16.91,-777,1467,4351
536,5416,15276,17,-2007,407,1804
-3092,5640,17524,17,553,-2894,2079
268,6392,15216,16.95,2262,374,-1927
1472,8124,19032,16.95,-1773,310,-4866
664,5324,18328,17,431,-140,407
-1788,5092,15340,16.95,-159,287,529
-3832,5904,13376,17.05,-335,811,-1036
32,8580,17468,16.95,2167,1670,281
1760,8988,15132,17,2510,1898,2421
-524,6216,19896,16.91,-787,43,3138
-1596,5264,15464,17,-548,1337,2522
-3024,4940,15752,16.95,456,-1293,1160
84,6536,15232,16.95,-544,-899,-3362
4588,9156,17464,16.95,-1231,-579,-4333
1980,6052,17376,17,-338,1560,-1259
-1032,6048,15524,16.86,-1017,-2211,-502
-3976,6240,13696,17,-96,-1335,-520
1612,8252,16996,17.05,4022,2521,-790
-4364,6496,15464,16.91,-4332,1694,-1464
-2404,6480,17576,16.91,-1619,1878,3814
68,5004,16700,17.05,-164,-1018,1696
120,5880,16000,16.91,2137,-1591,2546
1512,6284,20192,17.09,-529,-3278,236
-2844,5968,23532,16.95,-4540,-594,-4002
1360,4660,14136,16.95,-227,6,-4863
3924,6188,10932,17,885,1284,-3243
-144,7272,14640,17.05,1515,797,-3081
-3208,7024,18624,16.95,736,2447,51
-1088,5608,21216,17,-2080,178,4619
-6252,4408,16728,17,-2480,-2340,3215
-4516,3816,14452,16.95,-844,-1596,4090
-400,5788,13384,16.95,-16,-1508,1046
1544,8440,18820,16.95,2191,1387,-664
1116,7420,21700,16.91,1276,1430,-1075
-140,5168,12892,17,73,563,385
-1964,5068,11516,16.95,-2615,310,332
356,7384,13704,16.86,-1620,322,-182
4232,7860,21848,16.95,1060,-3613,1519
-3432,7096,17596,17,-2193,37,828
-2400,5268,16032,17,383,3251,-925
-3136,5040,15780,16.95,-47,382,264
-3488,5144,18164,17.05,1935,-3046,3106
-1920,6268,13836,16.95,1033,-1353,1656
-1088,6760,19476,17,-4305,623,-4798
-4148,5616,15428,17,-407,-3513,-2273
4208,7484,15372,17,1241,-944,-2232
1892,6788,12984,16.91,1358,792,-944
784,8428,14972,16.95,1774,1022,-3084
1804,9832,12052,17.05,-2497,3867,120
-2148,6128,15644,17.05,-3740,1554,3472
-2612,3728,17288,16.95,-2535,1949,3538
-756,4592,16936,17.05,1140,1365,966
-1956,7656,17584,16.91,846,2223,2266
-1724,8532,19684,17,2734,562,-1293
-4016,4516,16992,16.91,1890,-431,181
-1380,5772,13264,17.05,-220,1270,-179
-3368,4904,13404,17.05,-571,557,-841
1504,7000,17748,16.95,830,903,-615
-1208,6628,18908,16.91,1810,-1364,1716
-2428,6668,22812,17,-907,-121,713
-4788,5208,14912,16.91,-1626,319,2615
-2216,4312,13812,17.05,-1055,173,-1084
-1424,5608,15000,16.95,-1167,204,-1845
-1468,6476,16784,16.95,1583,-1385,-2721
-2748,7516,21308,16.95,2066,-2865,-1281
-4852,3920,18672,16.95,2823,-3174,174
-4428,4800,12924,17,-74,-864,-1607
-3488,5800,15016,17,-839,1442,37
-368,6980,15876,17,322,1771,1424
-1456,6812,19296,16.95,540,349,767
-2364,6824,17176,17.05,7,865,3177
-1364,5316,17008,17.09,-371,258,2863
-2376,4860,16380,16.91,-2106,827,-490
-1236,5528,15204,16.95,-1494,250,114
-1564,6980,16312,16.95,-837,367,-643
-908,6276,17248,17,243,-519,-44
-100,6904,18168,16.95,1289,-315,-1808
-556,5428,15712,17.05,991,313,-486
748,6064,14916,16.95,1476,-226,-449
-4060,5448,14184,17,-598,523,723
-1340,6320,15992,17,606,1633,605
-3244,5436,17500,17.05,-1130,894,2782
-2396,6936,17140,16.95,343,1011,3505