timestamp,aX,aY,aZ,temperature,gX,gY,gZ
15:23:00.601, -120,480,17176,26.98,493,210,4228
15:23:00.710,  168,1052,17828,26.98,-1482,-955,4319
15:23:00.817, -840,1352,17344,27.07,-16,-304,4666
15:23:00.928,   32,1224,15760,26.98,-175,-120,4786
15:23:01.001,  460,2596,15540,26.98,1995,1553,4719
15:23:01.109,  572,2060,16132,27.02,1091,2110,4270
15:23:01.216,  548,2136,16848,26.93,-132,1792,3443
15:23:01.327,  896,1456,16672,27.02,-1684,1445,2647
15:23:01.434, 1644,1144,16772,26.93,-1658,1194,3267
15:23:01.539, 1388,1216,16752,26.93,-696,238,2649
15:23:01.642, 1028,1140,18196,26.93,-722,103,2638
15:23:01.747,-1636,1796,19552,26.93,-644,1002,1345
15:23:01.853,-1776,124,17192,26.93,-1447,-119,1133
15:23:01.926,-1340,-448,15852,26.84,-52,161,1251
15:23:02.035, -828,336,15060,26.84,-684,-404,1606
15:23:02.136,  380,200,15140,26.93,130,-315,-339
15:23:02.246,  -68,1116,17708,26.93,396,-1232,1636
15:23:02.356,  576,1448,19184,26.93,-1379,-723,1170
15:23:02.467,-2100,864,18012,26.93,3200,1883,4279
15:23:02.579,-1432,1156,15956,26.93,349,-576,3870
15:23:02.651,  -36,212,14592,26.93,-2604,-663,2184
15:23:02.761, 1512,164,13992,26.84,-1741,-1640,803
15:23:02.868,  972,552,18052,26.84,898,-1454,-1249
15:23:02.973,  -56,28,21852,26.84,-1041,1173,-1000
15:23:03.083,-1168,-792,18264,26.84,-3918,1557,-2586
15:23:03.198,-1636,-388,14728,26.84,-150,1614,-2477
15:23:03.274,  196,-312,12552,26.93,2280,-3126,-649
15:23:03.375, 1316,-320,15304,26.84,3990,-2579,86
15:23:03.489,  580,2064,20084,26.84,2588,5,2523
15:23:03.599,  472,1512,20100,26.79,884,283,2992
15:23:03.709, -276,1624,16684,26.84,46,-832,2376
15:23:03.785, 1756,-400,13804,26.74,-911,-705,1935
15:23:03.895, 2720,56,14024,26.93,-1172,-1438,312
15:23:03.996, 2144,376,16784,26.93,-732,-1189,-1754
15:23:04.101, 1212,1004,21136,26.84,165,1310,-3110
15:23:04.215,  416,768,18788,26.84,-641,3044,-2514
15:23:04.325, -316,132,16508,26.93,-269,1032,-3820
15:23:04.432,  440,552,13328,26.84,365,-1711,-2421
15:23:04.504, 2176,244,14008,26.93,1183,-844,-2096
15:23:04.613, 1824,1240,18432,26.93,142,407,241
15:23:04.725, 1352,2144,20176,26.84,621,2641,1220
15:23:04.838, -800,3184,17240,26.88,131,1176,1459
15:23:04.950,  432,1796,14244,26.84,-469,1129,2259
15:23:05.021, 1404,692,13440,26.88,-1787,-1293,1332
15:23:05.134, 1968,1160,16396,26.79,-1608,-361,-1118
15:23:05.246, 1324,1772,20712,26.79,-1609,1081,-1762
15:23:05.355, -692,680,19944,26.84,-405,3842,2734
15:23:05.431,-1608,160,16708,26.84,182,940,647
15:23:05.538, -232,-292,12928,26.84,-112,-1843,732
15:23:05.652,  176,-560,14464,26.84,629,-2122,1965
15:23:05.757, -504,304,18824,26.74,486,-567,1780
15:23:05.867,-1420,1524,18932,26.74,1218,2510,1060
15:23:05.976,-1460,1676,17112,26.84,528,2162,408
15:23:06.086,  228,1492,15124,26.74,-1143,203,1024
15:23:06.157, 1136,476,14592,26.74,-2765,-1764,872
15:23:06.258,  912,-72,17140,26.84,-1253,-1527,-1648
15:23:06.358, -796,-348,18836,26.74,-855,626,-1850
15:23:06.472, -692,-380,18072,26.84,699,4467,-2476
15:23:06.579,-2188,-312,16256,26.74,1536,2163,-3461
15:23:06.691,  288,336,13424,26.74,603,-1893,-3201
15:23:06.800, 1676,516,15788,26.84,-215,-2831,-1819
15:23:06.907,  464,572,18948,26.69,33,625,-1120
15:23:06.978,-3020,2276,19800,26.79,4248,3793,-281
15:23:07.088,-3332,3120,16508,26.69,652,-863,849
15:23:07.198,   96,1348,13180,26.6,-795,-357,3570
15:23:07.312, 1540,660,13488,26.69,-372,28,1776
15:23:07.426,  644,1300,18792,26.69,-865,-630,-1559
15:23:07.493,-1832,1564,22368,26.79,-1678,316,-906
15:23:07.598, -648,548,17364,26.6,-2123,-740,-1589
15:23:07.712,-1400,600,14920,26.6,2434,1344,-1811
15:23:07.821, -172,964,12616,26.65,1507,-607,-5
15:23:07.928,  608,1332,14848,26.65,1581,-923,621
15:23:08.042, -680,2268,18640,26.65,2149,2044,1327
15:23:08.115,-1540,3208,20764,26.65,2816,3590,2705
15:23:08.224,-2744,3096,17020,26.65,709,785,3186
15:23:08.338,-1680,1692,15264,26.69,-1130,-478,2363
15:23:08.452, 1340,840,13304,26.6,-3394,-2101,-374
15:23:08.529, 1108,1460,16828,26.6,-2603,-1003,-2473
15:23:08.639, -404,1900,21684,26.6,-2990,-291,-1540
15:23:08.753,-2352,-580,17808,26.6,-2944,1170,-2366
15:23:08.862,-1936,-40,15096,26.41,3748,1519,-3584
15:23:08.934, -972,224,12516,26.55,2861,-2201,-3108
15:23:09.043, 1448,992,13908,26.55,2068,-2955,-2002
15:23:09.149,  452,3760,19380,26.55,1126,1883,-93
15:23:09.259,-2192,5452,20492,26.55,2287,4583,1371
15:23:09.365,-2588,4180,16212,26.46,-1386,896,1741
15:23:09.479, -528,1652,13824,26.51,-1616,662,3620
15:23:09.588,  276,1392,14680,26.6,-507,-773,346
15:23:09.665, -336,1820,18072,26.46,-1410,-1894,-2167
15:23:09.770,-2440,1756,22080,26.55,45,-1466,-2424
15:23:09.880, -708,1312,17624,26.37,-1155,-1052,-3315
15:23:09.986, -684,1868,14752,26.46,-881,1758,-2630
15:23:10.096,  528,1336,13236,26.41,-1277,-1887,-1785
15:23:10.172,  996,936,16144,26.51,-775,-2272,713
15:23:10.286,  756,1212,18660,26.41,-1184,-959,2543
15:23:10.391,-1548,2300,18072,26.37,1772,4238,4066
15:23:10.506,-1772,2212,16908,26.46,517,1256,2689
15:23:10.610, 1012,368,13420,26.46,-2309,-725,2202
15:23:10.715, 1556,356,14220,26.41,-717,394,214
15:23:10.789,  196,1616,18184,26.41,-403,-1297,383
15:23:10.899,-3248,2024,22824,26.46,1406,3414,2770
15:23:11.009,-1684,768,17488,26.55,-1462,1933,-471
15:23:11.119,-1856,-328,13992,26.37,966,1856,-918
15:23:11.229, -944,-368,13472,26.51,1184,-1666,232
15:23:11.338, -888,584,16672,26.32,1094,-1761,1421
15:23:11.442,-1236,1884,19236,26.46,548,321,711
15:23:11.519,-2148,3212,18036,26.46,-306,2648,-278
15:23:11.628,-1008,2556,16140,26.46,-235,2397,1460
15:23:11.742,  -40,1844,14196,26.46,-195,-291,1615
15:23:11.847,  248,1784,15024,26.41,-40,-2356,1152
15:23:11.923, -100,2024,18792,26.32,60,-1499,-573
15:23:12.030,-2620,3156,20684,26.37,1316,1167,2143
15:23:12.131,-2876,1708,18408,26.37,-1129,2421,548
15:23:12.236,-1848,672,14868,26.27,-2194,1032,-2038
15:23:12.351, -648,-48,13588,26.46,-1122,-2968,-773
15:23:12.465, -820,148,17028,26.32,246,-3081,1569
15:23:12.540, -412,376,19696,26.32,386,-243,368
15:23:12.654,-1260,2336,17028,26.46,-788,1267,-568
15:23:12.761, -768,1744,14700,26.27,-1146,2102,-866
15:23:12.870, -364,464,13596,26.37,-2299,-699,-1307
15:23:12.981,  -76,96,15068,26.32,299,-365,-2460
15:23:13.086, -912,1280,19764,26.32,278,-273,-2997
15:23:13.186,-1860,1112,20680,26.37,-9,1746,-3018
15:23:13.262,-1792,264,18064,26.27,-1290,746,-2787
15:23:13.372, -688,208,13272,26.27,683,322,-508
15:23:13.477,   24,72,13348,26.41,1359,-2386,745
15:23:13.591, -640,696,17488,26.37,324,-1849,943
15:23:13.700, -960,1828,19396,26.37,-634,-271,551
15:23:13.776, -976,1684,16912,26.32,2191,1914,2846
15:23:13.882,-1148,1180,15956,26.32,394,3060,2154
15:23:13.988, -232,120,14460,26.27,-1954,-568,-198
15:23:14.102,  440,412,15784,26.27,-708,-1356,-1598
15:23:14.216,-1408,1228,19824,26.32,129,-1611,-2360
15:23:14.292,-3288,1696,19448,26.22,2784,4784,-751
15:23:14.405,-2560,432,16648,26.27,-316,-143,-2587
15:23:14.510,-1060,52,13404,26.18,-612,-794,-3469
15:23:14.620, -224,300,13532,26.18,-210,-1502,-1228
15:23:14.721,-1116,1228,17784,26.22,356,-365,1374
15:23:14.835,-1504,1524,19884,26.22,541,600,810
15:23:14.944,-2348,1992,17124,26.13,1358,1240,1254
15:23:15.017,-1316,764,15892,26.08,238,297,1607
15:23:15.129,  -72,264,14888,26.18,-1483,148,794
15:23:15.243,  252,816,15136,26.13,-372,-656,-1014
15:23:15.357, -352,1760,18448,26.13,928,-1912,-1505
15:23:15.428,-1956,2560,22884,26.13,1281,-490,-62
15:23:15.533,-1108,1416,17176,26.18,-2621,40,-705
15:23:15.647,-1036,1300,13864,26.04,15,2482,-2289
15:23:15.760,  -84,484,12816,26.13,-113,-1829,-308
15:23:15.865, -608,1328,16676,25.99,653,-1595,2987
15:23:15.975, -832,1812,19700,26.18,-2159,504,2539
15:23:16.050,-1480,2396,17892,26.04,129,3831,995
15:23:16.155,-1700,1568,16476,26.08,-282,349,3068
15:23:16.269,   88,404,13756,26.08,-723,-1085,1603
15:23:16.384,  532,544,14768,26.04,764,-217,412
15:23:16.459, -304,1320,19264,25.99,-777,-1654,-894
15:23:16.569, -920,1632,21460,25.99,-841,-53,85
15:23:16.683,-1100,540,17528,25.89,789,902,-870
15:23:16.792,-1976,1020,14500,25.94,2483,1639,-2113
15:23:16.869,   76,280,12856,25.94,-327,-2888,-1476
15:23:16.983,   32,920,15768,25.99,-260,-751,1992
15:23:17.088, -612,1872,19232,26.04,-1188,1821,1161
15:23:17.202,-2356,3252,19520,26.04,1074,4598,-146
15:23:17.317,-2776,2516,16760,25.99,-1018,325,2119
15:23:17.393,  -12,584,13408,25.99,-1029,-501,1641
15:23:17.502,  696,368,14388,26.04,393,-1079,-446
15:23:17.616, -196,1408,18520,25.99,449,-2155,-2283
15:23:17.726, -744,1832,21568,25.99,-588,-446,-602
15:23:17.798,-1912,1060,18476,25.94,-1498,863,-2683
15:23:17.903,-2000,952,15092,26.04,1124,1179,-3960
15:23:18.013, -556,684,11996,25.94,604,-3497,-993
15:23:18.127, -248,1236,14668,25.99,506,-1337,538
15:23:18.237,-1920,2308,19880,26.04,-210,2271,1309
15:23:18.313,-2340,3200,18516,25.94,503,5200,-193
15:23:18.427,-3148,2584,16832,25.89,-226,678,1644
15:23:18.541, -288,1096,13628,25.99,-747,-1038,3447
15:23:18.641,  -20,876,14596,25.94,564,371,656
15:23:18.751, -732,1716,18276,25.89,-203,-1243,-1340
15:23:18.857,-1572,1892,21328,25.99,-1341,43,297
15:23:18.933,-2288,1040,18540,25.94,-2165,1015,-289
15:23:19.045,-1796,332,14916,25.8,791,1591,-3287
15:23:19.155, -488,84,13200,25.89,1309,-3094,-1874
15:23:19.269, -568,312,15012,25.85,1804,-3214,-45
15:23:19.341,-1656,1544,18012,25.99,-553,-1958,-59
15:23:19.455,-1492,2104,19384,25.85,983,3174,-2248
15:23:19.570,-2140,3788,17012,25.85,60,1325,-1592
15:23:19.684, -584,2432,14828,25.8,-1434,1145,662
15:23:19.755,  984,976,13820,25.75,-2587,868,-88
15:23:19.865,  368,1152,16656,25.85,-769,23,-1176
15:23:19.971, -764,320,20824,25.89,-1428,-1011,-788
15:23:20.082,-2388,148,19220,25.75,-908,2351,-1740
15:23:20.191,-3596,-36,17380,25.89,-35,1807,-762
15:23:20.301,-1872,332,13208,25.85,1073,-1655,-2028
15:23:20.372, -756,152,13988,25.71,1816,-2896,-2149
15:23:20.482, -660,704,17928,25.8,217,-1823,719
15:23:20.586,  500,936,20352,25.75,66,1637,2075
15:23:20.700,-1924,2572,17924,25.71,-1755,1164,2769
15:23:20.815,-1540,1328,14932,25.75,-1896,168,2713
15:23:20.887,  380,-356,13628,25.75,-2253,-1923,1736
15:23:20.996,  576,-640,15292,25.8,-76,-1883,694
15:23:21.101,  580,-20,19416,25.66,302,-714,-351
15:23:21.215,-1396,-384,20916,25.71,-340,2873,672
15:23:21.317,-1268,-1324,16544,25.71,-1414,216,-2701
15:23:21.427,-1112,-832,14152,25.75,2335,-1166,-2940
15:23:21.537,  964,-496,13572,25.75,3241,-3914,-1817
15:23:21.613,  408,1072,17188,25.71,20,-1916,-1335
15:23:21.718, 1148,1692,19628,25.71,-2072,368,-1598
15:23:21.828,-1736,2396,18960,25.75,1927,5275,-252
15:23:21.942,-1484,1520,15548,25.66,-1143,-1199,-814
15:23:22.054, 1268,328,13620,25.71,-1408,-2220,-177
15:23:22.125, 2064,732,14952,25.75,-1106,-491,-1714
15:23:22.231,  532,864,19596,25.66,-608,926,-2731
15:23:22.345,  560,-464,21052,25.71,522,2393,-3206
15:23:22.459, -200,-488,15768,25.75,-595,511,-3172
15:23:22.565,-1144,0,15472,25.66,4133,891,-2724
15:23:22.641, 1004,1056,14300,25.71,4579,-845,-2293
15:23:22.756, 1936,1060,15860,25.66,-369,-3360,-3059
15:23:22.868,   80,3340,19700,25.66,-2760,-3021,196
15:23:22.977,   28,1836,18808,25.61,-961,-501,1652
15:23:23.050,  192,2004,18232,25.57,205,2440,2964
15:23:23.164, -324,1220,14372,25.71,341,1975,2378
15:23:23.274, 1048,2008,14252,25.57,419,-1580,3145
15:23:23.384, 3356,1000,19352,25.66,-1440,-2331,1153
15:23:23.494, 2488,-1980,21428,25.61,-1379,-484,-2753
15:23:23.570,  248,-1944,17100,25.61,-1542,1389,-4842
15:23:23.684, -184,1196,13448,25.57,-1989,1504,-5725
15:23:23.793,  404,1524,13140,25.42,242,474,-2549
15:23:23.903, 1908,12,15720,25.52,-13,-1549,-1554
15:23:23.979, 1556,1452,19900,25.57,2881,1404,341
15:23:24.084,-1800,2032,20680,25.52,2898,5212,303
15:23:24.194,-1544,2472,16320,25.52,-50,252,1970
15:23:24.308,  256,1492,13188,25.57,-2747,-761,2060
15:23:24.422, 1060,1096,14236,25.52,-2544,-65,683
15:23:24.494,  348,852,18996,25.52,-1095,20,-969
15:23:24.600, -252,-1652,21008,25.52,76,-109,-2780
15:23:24.704, -976,-1928,17716,25.47,-78,-1056,-4545
15:23:24.818, -640,700,14844,25.52,2461,224,-3996
15:23:24.928, 1752,2008,12708,25.47,176,733,-1133
15:23:25.042, 1872,712,14480,25.52,-806,-386,-98
15:23:25.109, -244,2592,19536,25.38,1429,-26,635
15:23:25.219,-1364,3072,21636,25.42,2618,1753,1553
15:23:25.328,-1192,1416,18544,25.42,440,181,3538
15:23:25.433, -184,480,13672,25.52,-2338,-771,2716
15:23:25.547,  984,1132,13444,25.47,-1511,-2345,724
15:23:25.651, 1416,1096,17196,25.52,121,-1346,-2102
15:23:25.760, 1496,1556,21172,25.47,-320,1624,-3943
15:23:25.865, -392,-656,18064,25.57,-179,2113,-4303
15:23:25.941,-1292,968,16296,25.38,252,-245,-4198
15:23:26.051, 1980,960,12592,25.42,1224,-972,-2142
15:23:26.160, 3060,2520,13796,25.52,-285,-1743,-441
15:23:26.266, 1232,4060,18532,25.38,1970,844,411
15:23:26.371, -572,4856,21688,25.42,3862,2104,3407
15:23:26.480, -956,4216,17852,25.38,519,2608,7100
15:23:26.556,-1048,1676,14480,25.42,-3099,1173,7121
15:23:26.670,  648,1040,13048,25.33,-2295,-257,4601
15:23:26.785,  300,956,18080,25.38,-542,-551,756
15:23:26.890, -664,-248,20552,25.42,-164,265,-1998
15:23:26.966,-1992,-1656,18252,25.47,-119,1909,-3562
15:23:27.075,-1868,532,16092,25.33,-326,140,-3555
15:23:27.189, 1292,2024,12692,25.28,-187,-607,-3246
15:23:27.303, 2164,2628,16244,25.33,-1628,1339,-2706
15:23:27.379, -796,2328,18556,25.33,591,1518,297
15:23:27.487,-2164,2480,18924,25.33,1516,-908,3661
15:23:27.597,-2596,2336,17196,25.28,-560,3570,4961
15:23:27.708,-1916,672,14780,25.38,-2339,387,4400
15:23:27.822,  -72,628,14076,25.33,-1490,-2314,2845
15:23:27.898, 1192,712,16080,25.33,-556,-1463,1202
15:23:28.009, -368,-416,19376,25.33,-360,586,-394
15:23:28.114,-3172,-1716,19304,25.38,-1123,3591,-1664
15:23:28.228,-3160,-668,17376,25.33,91,1045,-3161
15:23:28.304,  204,972,13060,25.28,1678,-446,-2945
15:23:28.412, 1312,844,13876,25.42,-528,-2577,-1971
15:23:28.522,  500,1104,18252,25.38,441,-1239,-608
15:23:28.627, -444,2236,21644,25.33,473,373,918
15:23:28.742,-1916,2732,19184,25.24,307,1757,3135
15:23:28.818,-1468,1540,14708,25.28,-1166,-716,4497
15:23:28.938,  984,-228,12108,25.33,-2835,-3477,3186
15:23:29.048, 1844,-728,15612,25.28,-727,-1419,1293
15:23:29.158,  820,-1168,19964,25.24,-1425,-1106,-1385
15:23:29.258,-1888,-2176,20056,25.28,419,2971,-2656
15:23:29.363,-1008,-948,16388,25.24,214,-565,-2112
15:23:29.468,  872,244,12144,25.24,907,2427,-1493
15:23:29.544, 1312,788,13744,25.28,937,-668,129
15:23:29.654,  736,1172,18440,25.28,821,-89,1209
15:23:29.760, -748,1776,22680,25.24,2021,737,2841
15:23:29.874,-1936,2636,18572,25.33,237,3004,4964
15:23:29.988, -708,1260,13312,25.19,-2368,96,5228
15:23:30.063, 1308,-496,12648,25.14,-2007,-2158,3245
15:23:30.177, 1072,-208,17180,25.19,-479,-769,1026
15:23:30.283,  208,-496,20444,25.33,-835,-602,-1874
15:23:30.393,-2068,-1840,19760,25.24,-591,2393,-3855
15:23:30.469,-2104,448,16768,25.28,1629,732,-4088
15:23:30.579,  728,2436,12020,25.24,2117,206,-3192
15:23:30.688, 1600,1968,12984,25.28,-335,-2613,-1401
15:23:30.802,  364,2580,19080,25.24,909,-442,1569
15:23:30.908,-1944,3244,23728,25.28,1671,4013,2770
15:23:31.013,-1832,3272,18232,25.19,44,84,3959
15:23:31.123,  180,1320,13056,25.24,-2220,-1498,5621
15:23:31.195, 1140,-608,12316,25.28,-3271,-3487,4126
15:23:31.300, 1196,-476,17428,25.28,-266,-728,1317
15:23:31.406,  756,-188,21492,25.24,1191,2747,-1308
15:23:31.515,-2204,-2664,19908,25.24,856,4035,-1469
15:23:31.629,-2004,-1680,16176,25.19,-204,-1881,-3832
15:23:31.734, 1124,-536,11900,25.24,39,-3654,-3733
15:23:31.840, 1920,548,14056,25.24,-1056,-2689,-2172
15:23:31.916, 1884,1024,18888,25.28,-804,-3096,-299
15:23:32.031,  168,1592,21812,25.28,-107,2048,1200
15:23:32.136, -248,1248,17344,25.24,2066,3993,2207
15:23:32.245,  972,-508,12504,25.24,268,1749,1063
15:23:32.359, 1896,-312,15116,25.19,-1387,-1965,709
15:23:32.431, 1208,316,19748,25.24,-2068,-472,-196
15:23:32.541,  512,-2732,21012,25.19,-1153,-163,-2010
15:23:32.651,-1504,-3612,17592,25.24,700,983,-4132
15:23:32.761, -716,-696,14220,25.24,1696,-163,-5520
15:23:32.870, 2592,1800,11484,25.19,2556,401,-3696
15:23:32.947, 2560,3032,14708,25.24,-1012,-113,-1658
15:23:33.051, 1880,3388,20492,25.09,2521,1062,1141
15:23:33.160,-1144,3248,21700,25.05,765,4442,1866
15:23:33.275,-1380,1392,17468,25.05,-358,234,4637
15:23:33.389,  276,1216,11840,25.09,-1773,-1079,4727
15:23:33.461, 1816,284,12784,25.14,-2355,-1609,2796
15:23:33.561, 1108,124,19296,25.19,-488,306,674
15:23:33.675,-1424,-884,22468,25.14,1115,3377,-2695
15:23:33.785,-1812,-548,17844,25.19,1559,938,-3244
15:23:33.899, -832,956,14612,25.05,770,-82,-2319
15:23:33.975, 1836,2320,12044,25.14,-270,-2901,-356
15:23:34.081, 1748,1888,16132,25.09,-126,-1273,1329
15:23:34.186, 1140,2448,20820,25.14,1758,-1558,3097
15:23:34.296,-1592,3212,20644,25.19,-320,2700,4252
15:23:34.402,-1264,3020,16324,25.14,-2088,1548,5353
15:23:34.511,  276,1356,11876,25.14,-2044,583,4661
15:23:34.621, 1380,-32,14004,25.09,-3121,-1655,3235
15:23:34.697, -148,-424,19868,25.14,-894,963,1627
15:23:34.800,-2400,-2312,21920,25.14,-978,3808,-1243
15:23:34.904,-1228,-1996,17496,25.09,276,-24,-2834
15:23:35.014, -388,384,14640,25.14,2401,732,-3872
15:23:35.120, 1388,1476,13504,25.14,1020,-2688,-2011
15:23:35.224, 1420,1288,16028,25.19,708,-2137,-197
15:23:35.334,  476,3180,20060,25.05,3145,-1323,1648
15:23:35.448,-1184,3660,18872,25.05,1548,4203,2682
15:23:35.521,-1072,2228,15296,25.09,796,2406,4678
15:23:35.631, -216,996,13496,25.05,-2090,2229,4264
15:23:35.745, -512,1308,15808,25.05,-2104,-1289,2651
15:23:35.850,-1560,1304,20044,25.0,-967,-53,646
15:23:35.964,-3120,-988,20036,25.09,70,2168,-1104
15:23:36.036,-2464,-1104,17244,25.14,-455,-1300,-3096
15:23:36.145,   36,612,12872,25.0,-334,-1222,-2966
15:23:36.259, 1768,1128,12656,25.14,-673,-3108,-1806
15:23:36.373, 1612,1436,17496,25.05,1809,-859,-321
15:23:36.450,  548,2672,21532,25.05,2248,1878,1716
15:23:36.554,-1580,2636,18604,25.09,-859,1932,3986
15:23:36.665,-1116,652,15096,24.95,-2174,-861,5080
15:23:36.774, 1204,-1032,12528,25.05,-2573,-2587,2431
15:23:36.884, 2208,-880,15848,25.0,-653,-908,509
15:23:36.994,  236,-952,20100,24.95,-724,1346,-2332
15:23:37.067,-1668,-3560,20340,25.09,-1226,2583,-5093
15:23:37.176,-1348,-1848,16548,25.05,-267,-432,-6200
15:23:37.283,  268,260,13060,25.05,1345,1207,-5108
15:23:37.388, 1632,424,13568,25.09,929,-574,-3214
15:23:37.502,  460,560,17612,25.05,1316,-993,-1405
15:23:37.611,-1544,1200,21352,25.14,1350,4331,707
15:23:37.687,-1820,2540,17984,25.0,1158,2587,1604
15:23:37.801, -820,1204,15576,25.14,-693,55,3072
15:23:37.911,  980,68,13440,25.14,-2015,-2243,2475
15:23:38.026, 1108,580,16744,25.05,20,-1006,1904
15:23:38.095, -904,68,20960,25.09,74,152,-14
15:23:38.203,-2628,-2388,19072,25.0,278,1663,-2602
15:23:38.312,-1852,-1448,15852,25.05,422,-956,-4564
15:23:38.421,  344,304,12840,25.05,1314,1485,-3509
15:23:38.525,  876,996,14292,25.05,874,-604,-2436
15:23:38.629, -620,1480,19116,25.05,1599,-1683,-1876
15:23:38.737,-1380,2552,20816,25.0,156,576,-719
15:23:38.813,-1680,3260,17744,25.05,1,1610,2104
15:23:38.928, -880,1564,14408,25.05,-1959,959,2686
15:23:39.037, 1288,636,13876,25.09,-1388,-1743,1481
15:23:39.150, 1012,764,17128,25.0,-1083,-2013,613
15:23:39.227,-1276,-636,20860,25.14,-1612,496,-374
15:23:39.336,-1396,-3036,17704,25.09,-1862,118,-2331
15:23:39.450,-1468,-612,15612,25.09,1123,977,-3470
15:23:39.560, 1488,1128,12272,25.14,1388,-1360,-2156
15:23:39.666,  596,44,15068,25.09,234,-620,-2197
15:23:39.776,   32,624,19256,25.09,475,1300,-335
15:23:39.852,-1660,1092,20868,25.0,235,2361,586
15:23:39.966,-1276,1692,17012,25.14,190,1380,1779
15:23:40.070, -604,148,14996,25.09,-1276,550,2201
15:23:40.176,  728,-24,14716,25.0,-1255,-2427,1215
15:23:40.284, -344,680,18300,25.0,-1858,-1402,502
15:23:40.360, -860,-1424,19624,25.14,-2173,-937,-1309
15:23:40.474, -816,-2448,18000,25.05,-840,1899,-2762
15:23:40.584, -996,-684,15160,25.05,1531,162,-3607
15:23:40.698, 1476,904,12980,25.09,2669,-921,-2506
15:23:40.807, 1212,944,15540,25.09,514,756,-1969
15:23:40.881, -636,1348,18860,25.14,1251,370,370
15:23:40.989,-2776,2192,20084,25.14,1513,1980,2023
15:23:41.101,-1400,2096,17096,25.09,-958,653,3050
15:23:41.211,  436,332,13688,25.19,-722,-938,2951
15:23:41.287, 1176,548,14932,25.09,-1707,-2198,815
15:23:41.401,-1180,428,18844,25.05,-2864,-1194,-1173
15:23:41.515,-1564,-1688,20200,25.05,-418,1463,-1943
15:23:41.629,-1276,-2380,17392,25.09,-27,2362,-2687
15:23:41.701, -800,-224,14740,25.05,956,1463,-3192
15:23:41.802, 1032,636,14348,25.05,1767,-641,-1393
15:23:41.912,  876,1188,17116,25.09,123,-1510,-575
15:23:42.021,  740,872,19636,25.09,620,-2441,-56
15:23:42.135, -652,2196,18504,25.14,1553,1500,2504
15:23:42.250,-1028,792,16656,25.14,-1440,-138,3912
15:23:42.326,    8,-812,13728,25.0,-2465,-429,2612
15:23:42.428, 2100,-1188,14792,25.05,-1096,-1455,1893
15:23:42.542, 1104,-1204,19696,25.05,-896,407,-640
15:23:42.642,-2660,-2356,22204,25.0,-7,2447,-1879
15:23:42.752,-1788,-2156,16680,25.09,-140,-821,-2870
15:23:42.866,  140,-88,13260,24.95,1604,1685,-3224
15:23:42.942, 1676,976,13688,25.05,1393,-203,-1933
15:23:43.052,  872,852,17456,25.05,1141,-865,-737
15:23:43.154,  672,1980,20332,25.05,367,-1317,1151
15:23:43.268, -724,2644,18208,25.0,1267,4103,3111
15:23:43.373,-1060,1452,16360,25.05,-998,491,3851
15:23:43.483,  564,40,13692,24.91,-1828,-1661,2674
15:23:43.559, 1700,-132,15500,24.95,-832,-2280,1339
15:23:43.665,  508,-8,19860,24.95,-999,-717,-96
15:23:43.779,-2220,-2364,19468,24.95,-588,3475,-2102
15:23:43.884,-1348,-780,16312,25.09,-161,-489,-3032
15:23:43.998, 1052,188,12896,25.0,1681,1261,-3456
15:23:44.070, 1932,912,14416,25.05,496,-1229,-1622
15:23:44.179,  716,1428,19332,25.05,1527,-241,517
15:23:44.289,-1408,2628,23080,25.05,2326,2037,2096
15:23:44.399, -868,3228,17448,25.0,196,-373,3780
15:23:44.504, -144,1328,14072,24.95,-1481,476,5994
15:23:44.618, 1388,-260,13056,24.95,-2467,-2616,3914
15:23:44.690, 1808,-616,16840,25.0,-314,-1575,2086
15:23:44.804,  488,-616,21068,25.0,-1167,-264,-839
15:23:44.914,-1428,-2816,18600,25.05,374,3232,-4130
15:23:45.028, -596,-1012,15016,25.05,163,-922,-5363
15:23:45.100, 1548,1140,12188,24.95,1110,312,-4909
15:23:45.209, 1864,1612,14748,25.0,97,-1324,-2917
15:23:45.319,  716,2796,19704,24.95,1036,-60,416
15:23:45.429, -752,3228,21752,25.05,1087,2073,3360
15:23:45.537, -640,2532,17936,24.91,-971,858,5336
15:23:45.652,  580,-332,13676,25.0,-1578,-290,4743
15:23:45.728, 2076,-840,13504,24.95,-1272,-3113,2642
15:23:45.838,  812,-364,18132,24.95,-406,-1032,966
15:23:45.943,  328,-1320,20780,24.86,396,1756,-1596
15:23:46.053, -468,-2332,17996,24.91,287,2747,-4745
15:23:46.164,  -48,792,14468,24.86,1663,659,-5554
15:23:46.240, 2084,1880,12400,24.91,373,-1669,-3190
15:23:46.341, 1632,1888,15496,24.91,-615,-389,-1275
15:23:46.450,  764,3148,19644,24.95,897,-852,1420
15:23:46.560,-1368,3120,20304,24.86,1332,6113,3866
15:23:46.664,-1428,1812,17980,24.91,-1203,1054,5468
15:23:46.774,  244,-156,13784,24.95,-1697,-934,5512
15:23:46.884, 1696,-688,14420,24.95,-708,-2225,3315
15:23:46.955,   -4,72,19812,24.91,-735,-910,704
15:23:47.064,-2900,-2108,22376,24.81,-787,726,-1925
15:23:47.170, -452,-1612,16732,25.0,-433,-1874,-4484
15:23:47.280,  816,428,13160,24.81,-149,1783,-5504
15:23:47.389, 2792,1500,12584,24.91,357,-1721,-3322
15:23:47.503, 1996,2444,17472,24.91,-348,-1684,-697
15:23:47.579, 2104,3656,20016,24.95,660,-1079,2781
15:23:47.689,  436,3780,17972,24.95,1467,3534,5845
15:23:47.799, -852,1196,16120,24.95,-1552,1610,6825
15:23:47.905, 1912,-912,13732,24.91,-1844,-3346,5078
15:23:48.010, 2908,-356,15728,24.91,-674,-622,2498
15:23:48.119, 1068,-444,19480,24.86,-367,-803,482
15:23:48.229,-1172,-2748,20348,24.86,-160,3031,-2276
15:23:48.302, -500,-1280,16244,24.86,389,-44,-3496
15:23:48.411, 1996,824,12844,24.91,320,-542,-3362
15:23:48.522, 2820,800,13580,24.91,-589,-1191,-1683
15:23:48.631, 1552,1964,19084,24.86,917,-504,667
15:23:48.740, 1616,3192,20852,24.86,1255,351,3897
15:23:48.812,  768,1868,17480,24.81,1353,2220,5328
15:23:48.926,  -96,120,15084,24.91,488,1013,5097
15:23:49.040, 1388,-680,14008,24.95,-2240,-1639,2994
15:23:49.150, 2268,-732,16340,24.86,-1703,-1909,1661
15:23:49.255, 1712,-700,20156,24.72,-824,423,-463
15:23:49.331, -260,-2240,19832,24.81,-6,2845,-2852
15:23:49.445, -204,-812,15976,24.81,-44,-579,-3123
15:23:49.555, 1852,928,12316,24.91,1655,160,-2590
15:23:49.660, 2588,1560,14000,24.86,1057,-618,-938
15:23:49.737, 1232,1840,19440,24.86,2012,-416,1344
15:23:49.850,  740,2964,22328,24.77,1644,1940,3570
15:23:49.959,    4,2780,18184,24.95,374,-310,5430
15:23:50.073,  828,224,14088,24.77,-722,-168,5704
15:23:50.183, 2788,-2064,12440,24.86,-2190,-2374,3163
15:23:50.258, 2492,-760,16196,24.86,-430,-2389,1450
15:23:50.366, 1884,-1524,20800,24.81,-1608,1052,-1599
15:23:50.479,  -52,-2876,18512,24.77,-236,3823,-5298
15:23:50.592,  -44,412,15088,24.77,1849,1109,-6273
15:23:50.668, 2016,1460,12932,24.86,1478,-88,-4569
15:23:50.781, 2776,2152,15148,24.95,8,-989,-1813
15:23:50.886, 1796,2892,19752,24.91,691,828,1460
15:23:50.996,-1096,3180,21864,24.91,109,2493,4068
15:23:51.110,-1088,1608,17464,24.81,191,1073,5990
15:23:51.181,  640,-532,12968,24.86,-1122,1259,5009
15:23:51.291, 2020,-660,13540,24.77,-1574,-333,2965
15:23:51.400,  144,-88,19452,24.86,-1824,35,683
15:23:51.508,-1128,-1308,22312,24.77,-2092,1015,-1479
15:23:51.618,-2016,-3364,17340,24.77,-672,403,-4560
15:23:51.694, -856,-548,14544,24.81,2614,635,-5368
15:23:51.804, 2508,1672,12456,24.81,2431,-69,-3117
15:23:51.918, 1816,2452,16232,24.77,217,-737,-895
15:23:52.023,  612,3016,20072,24.86,797,-2165,2043
15:23:52.134, -992,3536,20612,24.81,1467,2328,5450
15:23:52.243, -908,2272,15808,24.81,-1018,-196,7574
15:23:52.315,  664,-392,12400,24.77,-1778,-805,6909
15:23:52.416, 1444,-1152,15160,24.86,-1378,-1323,4101
15:23:52.520,  996,-868,20320,24.81,-1385,-974,970
15:23:52.630, -476,-2580,22468,24.81,-1696,2156,-1626
15:23:52.735, -464,-2596,16620,24.86,204,-141,-3748
15:23:52.839,  964,200,13076,24.72,2382,698,-4961
15:23:52.944, 2756,2744,12808,24.91,960,-541,-2078
15:23:53.054, 2124,2172,17560,24.86,-83,-273,341
15:23:53.159, 1888,2100,20956,24.86,1745,-2030,3167
15:23:53.269,  352,2772,18948,24.77,1571,2220,5297
15:23:53.341, -236,1196,15172,24.91,-636,1052,6126
15:23:53.446, 1620,-1144,11972,24.86,-987,-111,4058
15:23:53.556, 1616,-1056,15888,24.86,342,-770,2030
15:23:53.666, 1200,-724,19956,24.81,-444,-599,-688
15:23:53.780,-1204,-2232,20792,24.81,-1212,4063,-3897
15:23:53.887,-1048,-1492,16704,24.72,-556,218,-5902
15:23:53.992, 1308,1460,12944,24.86,1818,1452,-5876
15:23:54.098, 1936,2920,13248,24.81,141,-2307,-3241
15:23:54.174,  632,2892,19120,24.81,562,-865,-299
15:23:54.281,  584,3348,22792,24.86,1586,21,3189
15:23:54.387, -284,3860,17824,24.86,545,2134,5497
15:23:54.493,  416,884,13228,24.81,-1114,227,5900
15:23:54.602, 1728,-472,13048,24.81,-2467,-1323,4323
15:23:54.708,  928,-484,18388,24.86,-1404,-1838,2040
15:23:54.813,  896,-432,21460,24.77,-742,-96,-642
15:23:54.889, -580,-2356,17832,24.77,513,3554,-2946
15:23:54.997, -760,-216,14268,24.72,1084,266,-3914
15:23:55.103, 1908,1504,12660,24.72,2927,71,-3067
15:23:55.215, 1616,2028,16124,24.72,231,-1277,-567
15:23:55.321, 1092,2652,20296,24.77,338,-2229,1479
15:23:55.426, -132,3204,20976,24.81,1745,2619,3728
15:23:55.536, -472,2780,15852,24.81,-474,1056,5292
15:23:55.646,  444,172,12588,24.67,-927,735,4246
15:23:55.714, 1688,-612,14472,24.86,-1232,-1448,2671
15:23:55.824,  888,148,20156,24.86,-1709,-642,482
15:23:55.938,  104,-1124,21284,24.81,-1145,778,-2333
15:23:56.043,-1324,-2664,18068,24.86,-87,1372,-5476
15:23:56.149, -296,236,13036,24.77,1267,797,-5302
15:23:56.263, 1976,1860,12372,24.77,458,-942,-3718
15:23:56.340, 1944,2288,17672,24.81,-371,240,-1982
15:23:56.450, 1764,2416,21616,24.81,-212,-796,596
15:23:56.559, -548,2464,19532,24.77,1283,2534,2190
15:23:56.669, -612,1472,15200,24.77,35,-1240,4296
15:23:56.777, 1156,128,11556,24.77,-631,-1324,2680
15:23:56.853, 1228,312,16172,24.72,-247,-1280,1807
15:23:56.963,  524,-60,20500,24.67,-424,-471,78
15:23:57.072,-1516,-2836,19948,24.67,771,5604,-3505
15:23:57.180,-1212,156,16508,24.67,654,-168,-3831
15:23:57.290, 2116,892,11184,24.72,787,-1867,-3770
15:23:57.362, 2132,1396,15912,24.81,-121,-1724,-1829
15:23:57.471, 1044,1828,20736,24.77,778,-492,-708
15:23:57.582,  -84,3352,21268,24.77,2017,3346,38
15:23:57.692, -912,3252,16304,24.77,1580,1544,3370
15:23:57.802,  196,1732,12356,24.72,-1629,561,4175
15:23:57.874, 1484,692,14520,24.77,-2403,-927,3494
15:23:57.983,  768,648,19956,24.67,-217,-1329,1766
15:23:58.097,-1316,96,22208,24.72,1008,2493,-1648
15:23:58.203,-1816,-1636,17392,24.72,427,785,-4529
15:23:58.312, -400,236,13192,24.67,617,-489,-4498
15:23:58.422, 2292,1504,11948,24.77,145,-2087,-2984
15:23:58.494, 1712,2464,17308,24.81,-49,-156,-1568
15:23:58.604,  596,2864,20192,24.81,1334,-970,265
15:23:58.716,-1536,3496,18132,24.67,316,3998,1957
15:23:58.829,-1832,2604,15412,24.67,-1281,767,3638
15:23:58.938,  616,420,12420,24.72,-2685,266,3250
15:23:59.010, 1380,504,16388,24.72,-1484,-1712,2011
15:23:59.116,  480,720,21072,24.77,-679,-1315,219
15:23:59.225,-1812,-1988,20804,24.67,-294,2692,-2349
15:23:59.331,-1552,-808,16700,24.67,898,-1050,-3255
15:23:59.445,  688,1012,12008,24.62,2468,-389,-3703
15:23:59.559, 2004,1840,13652,24.62,651,-3277,-1553
15:23:59.635,  832,2048,18924,24.72,214,-1055,363
15:23:59.745, 1204,2984,21468,24.62,446,916,1231
15:23:59.847,  -92,3704,17776,24.72,487,2466,3362
15:23:59.956, -184,1148,13628,24.72,-2101,1002,4268
15:24:00.071, 2256,-108,12048,24.72,-1625,-2314,3114
15:24:00.175, 1932,532,17864,24.62,-1571,-658,1997
15:24:00.251, 1192,-492,21200,24.72,-2003,-157,-345
15:24:00.364,-1316,-2196,19060,24.62,586,2890,-3623
15:24:00.474, -444,-896,15384,24.72,661,-1562,-5447
15:24:00.584, 2304,1176,11460,24.58,776,80,-4012
15:24:00.689, 2132,2072,14300,24.67,-545,-1475,-1713
15:24:00.799,  680,2484,20360,24.67,-201,-2454,541
15:24:00.865,  164,2400,21356,24.62,972,4624,2104
15:24:00.975,  200,2192,16704,24.62,994,1841,3528
15:24:01.082, 1064,524,12980,24.72,-714,643,3794
15:24:01.182, 2224,80,14344,24.72,-2366,-1988,2498
15:24:01.292, 1220,-60,18988,24.58,-1465,-867,1101
15:24:01.406, -272,-1996,22636,24.67,-1803,596,-1913
15:24:01.516, -868,-1788,18368,24.67,786,299,-4337
15:24:01.588, -112,120,13924,24.67,1104,1133,-5288
15:24:01.689, 2448,1440,12200,24.67,662,-1522,-3015
15:24:01.795, 2644,1952,15956,24.67,534,-758,-1105
15:24:01.908,  612,2920,19944,24.67,2803,3271,1117
15:24:02.020,-1412,2380,19288,24.67,266,5568,2658
15:24:02.131,-1032,1732,16252,24.67,-1050,-661,4451
15:24:02.207,  732,400,13124,24.53,-3152,-3085,3868
15:24:02.316, 1412,-188,15900,24.62,-862,-2315,2020
15:24:02.429, 1336,304,20768,24.62,-480,-1304,-1446
15:24:02.541,  608,-2108,21308,24.62,-2199,3472,-2829
15:24:02.617,-1000,-2104,16400,24.67,-602,-243,-2865
15:24:02.731,  856,-1224,12128,24.58,470,-2801,-4287
15:24:02.841, 2332,236,13696,24.58,871,-2603,-2943
15:24:02.947, 2020,1056,18368,24.58,814,-1195,-1671
15:24:03.048, 2380,1872,20948,24.53,624,1932,242
15:24:03.162, 1112,2644,16416,24.62,822,2817,1738
15:24:03.238,  916,1216,14092,24.53,-419,2355,3899
15:24:03.345, 2200,324,13920,24.53,-1203,-1526,3767
15:24:03.454, 2152,548,18436,24.53,-543,-1744,2119
15:24:03.563, 1280,-452,20684,24.53,-752,390,25
15:24:03.668, -256,-2752,17840,24.53,-789,3127,-2645
15:24:03.782, -420,-672,16000,24.53,385,-572,-4164
15:24:03.855, 1644,1124,12180,24.44,2409,1733,-3369
15:24:03.964, 2388,1460,15016,24.39,-637,-1092,-1603
15:24:04.074, 1004,1772,20920,24.48,1270,-2337,556
15:24:04.187,  876,1920,21748,24.48,2214,567,3253
15:24:04.289,  876,2488,16380,24.48,-809,-1071,4776
15:24:04.400, 1324,76,12232,24.48,-952,1823,3077
15:24:04.471, 2128,-176,14156,24.48,19,723,1776
15:24:04.585, 1000,508,18620,24.48,-1679,-460,1552
15:24:04.695,  552,-520,20268,24.48,255,-104,-108
15:24:04.801, -544,-1812,18396,24.48,1234,1575,-2989
15:24:04.902,   64,-496,14852,24.58,43,1660,-3716
15:24:05.012, 2104,764,11732,24.48,54,-1262,-2333
15:24:05.118, 2068,1192,16152,24.48,-487,-293,-1330
15:24:05.190, 1144,1472,21516,24.48,-742,-1512,464
15:24:05.300,  260,2124,19544,24.58,-391,444,1993
15:24:05.414, -308,2116,16016,24.58,-646,1040,3518
15:24:05.517, 1384,-380,11448,24.58,-1082,132,1637
15:24:05.627, 2120,-1368,15092,24.53,-1009,-1298,57
15:24:05.741, 1700,-944,20032,24.53,-1501,-28,-2198
15:24:05.817,-1244,-1400,22564,24.44,394,3825,-3989
15:24:05.923, -876,-1168,17468,24.48,290,-289,-3603
15:24:06.023, 1300,676,11828,24.58,-83,-385,-2749
15:24:06.127, 2808,1008,14084,24.48,-182,-1069,151
15:24:06.237, 1692,512,20700,24.48,1330,-504,563
15:24:06.351,  512,1248,22840,24.48,801,-986,910
15:24:06.425,  616,1760,16548,24.48,215,340,4044
15:24:06.535,  160,208,13524,24.48,-298,2948,4678
15:24:06.640, 1728,-856,12972,24.39,-1183,371,2598
15:24:06.750, 1560,-368,18832,24.53,-756,-2350,1407
15:24:06.864,  604,-1100,22172,24.53,-867,-373,-709
15:24:06.974, -252,-2924,16688,24.58,1393,475,-3695
15:24:07.050,  132,-684,14156,24.44,1282,1478,-4041
15:24:07.160, 2092,700,11348,24.44,876,-53,-2177
15:24:07.274, 1920,792,15164,24.44,-641,-1607,-1027
15:24:07.388, 1872,1148,20924,24.34,1329,1727,273
15:24:07.465, -976,2172,23120,24.48,-10,3149,1248
15:24:07.579,-1168,2056,17228,24.48,-471,-1374,3141
15:24:07.689,  600,64,12028,24.48,-1347,-1934,1921
15:24:07.790, 2700,-800,13540,24.39,-336,-1970,1026
15:24:07.904, 1876,216,20368,24.39,-383,-261,-415
15:24:07.975,  588,-1060,21760,24.44,-986,290,-1991
15:24:08.086,  332,-2144,16728,24.48,775,-368,-3500
15:24:08.190,  628,248,12672,24.34,1146,2218,-3251
15:24:08.293, 2412,1272,12056,24.34,665,-962,-1486
15:24:08.407, 2740,508,17144,24.48,1632,-392,-896
15:24:08.518, 2340,2328,21648,24.39,110,1390,-289
15:24:08.628, -648,2616,19628,24.39,1185,4065,656
15:24:08.705, -620,2488,15972,24.48,-1184,-692,3090
15:24:08.814,  928,976,12144,24.44,-2060,-2474,3054
15:24:08.928, 2288,936,15732,24.34,-786,-1823,1835
15:24:09.038, 2376,48,20996,24.44,1132,-549,360
15:24:09.110,   92,-1808,21012,24.34,-49,2643,-2648
15:24:09.221,  348,-280,16124,24.34,-86,-1304,-4120
15:24:09.335, 1284,1112,12588,24.34,792,1863,-3364
15:24:09.444, 2760,1748,13600,24.34,606,-2147,-695
15:24:09.521, 2392,1672,19476,24.44,1142,-1579,864
15:24:09.635, 2092,1624,22068,24.34,881,687,2339
15:24:09.749,  576,2576,17244,24.34,-481,2465,3414
15:24:09.854,  -40,940,13148,24.44,-1481,1487,3414
15:24:09.955, 2176,-432,12692,24.34,-1713,-2132,2086
15:24:10.060, 2944,-100,16944,24.39,-1835,-1943,1227
15:24:10.166, 2132,-520,20772,24.29,-1273,170,-454
15:24:10.277,  -20,-2284,18720,24.39,-432,2928,-2537
15:24:10.348, -256,-192,15820,24.39,20,1097,-3243
15:24:10.458, 1992,940,11388,24.29,1126,568,-3032
15:24:10.568, 2640,656,15420,24.29,-110,-455,-1960
15:24:10.675, 1132,612,21184,24.29,682,-634,-913
15:24:10.785, -544,2480,22012,24.25,2244,2010,1662
15:24:10.861, -484,1860,16624,24.29,-1557,-273,4661
15:24:10.975,  752,-276,11908,24.25,-670,1737,3247
15:24:11.085, 2140,-152,14476,24.34,-464,-954,600
15:24:11.194, 1596,560,19188,24.25,9,-1662,-354
15:24:11.308,   28,-1212,21964,24.25,-536,776,-1437
15:24:11.380,  152,-2736,17356,24.34,-209,-606,-3861
15:24:11.494,  812,296,14456,24.29,676,2116,-4530
15:24:11.603, 2396,1044,12452,24.34,246,57,-2411
15:24:11.713, 2100,1800,15244,24.25,-201,-1666,-1185
15:24:11.789, 1300,2792,20048,24.25,1887,-844,976
15:24:11.891, -320,3200,21424,24.34,1270,2241,2712
15:24:12.004,  -16,1816,16956,24.25,-601,-1085,4425
15:24:12.116, 1600,-364,12624,24.34,-1842,483,4462
15:24:12.221, 2992,-940,12580,24.25,-2202,-2278,1967
15:24:12.333, 1660,208,19400,24.29,-644,-833,129
15:24:12.434, 1096,-632,22748,24.25,-1571,1475,-1553
15:24:12.510,  968,-2900,16512,24.25,-238,674,-3349
15:24:12.614,  400,-280,13816,24.25,1880,2972,-4393
15:24:12.724, 2744,1564,12540,24.25,1567,-545,-3003
15:24:12.833, 2808,1148,16644,24.25,176,-1210,-1114
15:24:12.947, 2284,3004,20828,24.2,1043,-2255,1401
15:24:13.023,   36,3492,19628,24.15,2024,1996,3304
15:24:13.137,  808,2328,15892,24.15,-1004,-1003,5617
15:24:13.243, 2344,504,11996,24.25,-1736,721,5611
15:24:13.358, 3176,-1616,14772,24.25,-203,-644,2605
15:24:13.434, 1580,-1848,20588,24.25,1009,1692,-1431
15:24:13.543,-1260,-2132,22768,24.15,-625,3237,-3870
15:24:13.654, -324,-1968,16464,24.15,-1794,-34,-4745
15:24:13.759,  564,304,11484,24.29,1384,2226,-5621
15:24:13.873, 2908,2172,11880,24.15,2527,-375,-3208
15:24:13.949,  648,3400,19540,24.2,2148,1392,38
15:24:14.060,  652,4540,22828,24.2,1757,-1292,2837
15:24:14.163, -540,3328,19200,24.2,530,866,4390
15:24:14.278, -452,1428,14580,24.2,-1533,690,4743
15:24:14.392, 1784,60,11596,24.2,-2769,-3042,3230
15:24:14.468, 2500,-712,15736,24.11,-534,-1602,1679
15:24:14.578, 1212,-1044,20984,24.2,-726,429,-1285
15:24:14.688, -680,-2400,19980,24.2,-2606,3587,-5390
15:24:14.797, -524,464,16192,24.11,760,478,-6238
15:24:14.906, 2388,1468,11436,24.2,1732,-415,-5239
15:24:14.982, 2096,1684,15136,24.2,427,45,-3098
15:24:15.092,   36,2404,20104,24.2,-231,656,-959
15:24:15.203,-1268,3372,21804,24.11,1680,3965,358
15:24:15.309,-1192,3272,17032,24.11,557,976,2575
15:24:15.423, 1044,1120,11472,24.2,-1841,276,3968
15:24:15.495, 1784,968,14576,24.11,-1364,-529,2970
15:24:15.604,  -96,1076,21072,24.11,-1623,600,876
15:24:15.718,-2512,-1196,23612,24.11,-2282,3411,-2654
15:24:15.828,-1428,-2104,16836,24.01,-295,-1578,-3175
15:24:15.938, -832,-36,13168,24.11,1186,176,-3028
15:24:16.010, 2180,832,12240,24.11,3327,-2895,-1989
15:24:16.122,  912,2116,18380,24.11,1666,-1356,-1073
15:24:16.232,   24,3440,21100,24.15,1887,-1412,969
15:24:16.346, -268,3488,17316,24.06,-557,2001,3648
15:24:16.451, -540,2520,14708,24.06,-3003,2731,5088
15:24:16.527, 1264,352,12292,24.11,-2965,-177,3723
15:24:16.637, 1368,-24,17304,24.01,-940,-866,1733
15:24:16.751,  680,-612,21032,24.11,-551,-965,-863
15:24:16.865,-1108,-2588,20420,24.06,-1394,3007,-3559
15:24:16.940,-1320,-1424,16516,24.06,155,-1256,-3905
15:24:17.050,  896,-164,11596,23.97,775,-186,-4043
15:24:17.165, 1760,432,14060,24.11,1292,-1059,-2803
15:24:17.279,  684,1132,20196,23.97,1163,-335,-1628
15:24:17.355, -384,1856,22916,24.01,1722,2069,812
15:24:17.467,-1340,3076,18072,24.11,1266,1457,1776
15:24:17.581,   72,880,12652,24.01,-1436,170,3044
15:24:17.657, 1988,132,13432,24.11,-1746,-3296,2581
15:24:17.764, 2000,920,19484,23.97,-1293,-2562,614
15:24:17.878,  796,-216,21940,23.97,-2058,-977,-3093
15:24:17.978, -240,-1044,17188,23.97,781,331,-3856
15:24:18.088,  604,456,13620,24.11,-374,-543,-3359
15:24:18.201, 2164,1272,12976,24.01,890,1170,-2188
15:24:18.276, 2508,932,17340,24.01,-123,1836,932
15:24:18.386, 1308,848,20624,23.97,-100,252,2740
15:24:18.500, -844,1316,19364,23.87,2813,3011,2766
15:24:18.609, -608,1112,15560,23.97,811,122,2242
15:24:18.723, 1220,388,12424,23.92,-1339,1011,1802
15:24:18.799,  932,800,15380,23.97,-295,207,1092
15:24:18.900, -524,488,19060,24.01,-677,371,-961
15:24:19.014,-2416,-1484,20068,23.92,-1219,5198,-3080
15:24:19.124,-1824,-1164,17252,23.92,-891,-531,-3852
15:24:19.234, -224,732,13612,23.92,2180,663,-3996
15:24:19.310,  860,1412,13332,23.97,1869,-2675,-2307
15:24:19.420, -492,1924,17876,23.87,874,-1401,-1780
15:24:19.529, -220,2500,21908,23.97,805,165,-945
15:24:19.634, -528,3288,17676,23.92,179,2294,2500
15:24:19.749,-1404,1812,15356,23.92,-2403,-173,4595
15:24:19.825,  728,460,11684,24.01,-1978,-1735,3243
15:24:19.934, 1424,1100,16732,23.92,-451,-940,2257
15:24:20.043,  264,732,22356,23.82,426,-222,678
15:24:20.149,-1132,-1556,20204,23.92,-2342,308,-1489
15:24:20.262, -940,-1944,16540,23.97,-1125,-3211,-3421
15:24:20.372,  544,448,11840,23.87,1932,1458,-4038
15:24:20.444, 2100,1636,13200,23.97,578,-1419,-1488
15:24:20.553, 1980,1040,18752,23.87,-541,44,457
15:24:20.663,  688,1688,22016,23.92,1582,964,1504
15:24:20.773, -212,2436,17256,23.82,1201,1058,3172
15:24:20.887, -296,1184,14284,23.92,-461,1240,3859
15:24:20.955, 1212,-440,12180,23.82,425,774,3019
15:24:21.060, 2064,964,16792,23.92,-452,-1453,2308
15:24:21.172,  836,684,21220,23.92,-2075,336,-985
15:24:21.278,-1652,-1680,20844,23.78,-1484,3323,-3022
15:24:21.392,-1688,-1120,17056,23.68,153,-1096,-4497
15:24:21.501,  444,616,13264,23.87,2096,1112,-4445
15:24:21.607, 2080,1108,13084,23.78,1158,-1805,-2491
15:24:21.683, 1112,1188,19204,23.82,471,-364,-1342
15:24:21.804,  416,1676,22120,23.73,911,-381,173
15:24:21.912, -376,2300,16416,23.78,-1512,1475,2435
15:24:21.988, -672,1436,14268,23.82,-2392,1395,4031
15:24:22.103,  448,320,11996,23.82,-1740,-365,3006
15:24:22.209, 1776,616,16460,23.82,-447,-1469,2307
15:24:22.318, 1776,-280,21608,23.68,-416,-1201,-34
15:24:22.432,-1552,-1976,22432,23.78,413,2618,-3074
15:24:22.504, -600,-1724,15344,23.82,1155,-2230,-3401
15:24:22.610,  448,652,12348,23.82,1238,2927,-3586
15:24:22.716, 1544,1320,13328,23.78,1721,-991,-2690
15:24:22.821, 1956,2060,18856,23.87,175,-1376,-1547
15:24:22.935, 1380,3268,21316,23.82,2143,-1086,520
15:24:23.045, -740,3148,17568,23.78,209,1863,2613
15:24:23.121, -516,1252,14204,23.78,-1499,664,4080
15:24:23.235, 1112,532,11996,23.82,-1556,-190,2817
15:24:23.341, 1792,784,18268,23.78,-1848,-1749,2715
15:24:23.447, 1084,256,21580,23.73,-651,-254,958
15:24:23.552,-1240,-1400,19812,23.73,1604,4048,-2142
15:24:23.662, -796,-936,16272,23.78,42,-11,-3523
15:24:23.771, -176,72,11560,23.82,1381,1197,-3684
15:24:23.843, 1712,1408,14084,23.73,990,-3768,-2533
15:24:23.953, 2160,2160,21204,23.78,877,83,-1000
15:24:24.067,  -36,3412,23132,23.73,1510,2550,1064
15:24:24.168,-1272,3344,15892,23.73,-1023,1406,1747
15:24:24.282, -864,1632,12792,23.68,-978,2674,2640
15:24:24.358,  -20,1124,13340,23.78,-1223,333,2839
15:24:24.472,  652,824,17412,23.82,-478,-2344,2414
15:24:24.573,  132,484,20244,23.68,-690,-1605,1145
15:24:24.678,-1784,-1880,19672,23.64,-1248,1068,-869
15:24:24.783,-1376,-1440,16336,23.64,-268,-1396,-3551
15:24:24.897,  940,540,12412,23.73,1163,132,-4575
15:24:24.973, 2296,1136,13904,23.68,-447,-2551,-2424
15:24:25.078, 1724,988,19568,23.64,-438,-717,-625
15:24:25.184,  776,1992,21936,23.68,995,744,1231
15:24:25.290,  364,2692,16592,23.73,44,1010,2633
15:24:25.399,  172,968,13316,23.68,-366,2883,3633
15:24:25.513, 1480,-564,12820,23.64,-1616,-622,2348
15:24:25.622, 1764,-312,17736,23.54,-1050,-137,1221
15:24:25.732, -548,-804,21604,23.68,-1565,358,-1198
15:24:25.808,-2092,-2436,18488,23.64,-509,2089,-3779
15:24:25.914,-1472,-684,15972,23.64,1266,-1105,-4263
15:24:26.028, 1472,1556,11484,23.59,2265,310,-3944
15:24:26.142, 1604,2076,14228,23.59,-153,-484,-2150
15:24:26.218, -280,2596,20784,23.64,1757,-752,726
15:24:26.328,-1148,3060,22620,23.54,2131,1516,3322
15:24:26.438,-1200,2384,16640,23.54,-634,397,4913
15:24:26.552,  264,264,12420,23.64,-1596,1662,4664
15:24:26.628, 1468,-488,14104,23.59,-2108,-1597,2896
15:24:26.741,  868,160,20248,23.59,-1727,-2198,949
15:24:26.849,  240,-1180,21184,23.64,-1120,-309,-1729
15:24:26.962, -932,-2896,17536,23.59,386,149,-5528
15:24:27.038, -480,-144,14796,23.64,1889,1560,-6087
15:24:27.147, 1616,1312,11868,23.54,1659,324,-3976
15:24:27.262, 1604,1640,16416,23.59,-801,-1482,-2571
15:24:27.371, 1188,2512,19528,23.59,120,-2004,-739
15:24:27.447,-1116,3628,21260,23.64,1511,4169,1925
15:24:27.556,-1120,1844,16912,23.54,-536,1719,4872
15:24:27.662,  264,136,12584,23.49,-1601,1352,4317
15:24:27.767, 1232,304,15780,23.54,-900,-2619,3338
15:24:27.877, 1100,424,19900,23.54,-1110,-2181,1334
15:24:27.991, -416,-1300,21356,23.54,-1433,2836,-1679
15:24:28.097,-1604,-2712,16820,23.59,-587,1213,-3900
15:24:28.169,-1432,-560,13640,23.59,1110,598,-4521
15:24:28.281, 1520,1108,11908,23.54,2448,-1807,-4287
15:24:28.389, 1712,1940,17412,23.45,113,-448,-2883
15:24:28.503,  464,2804,20592,23.49,635,-480,-176
15:24:28.614,-1036,2504,18884,23.45,-592,3585,2352
15:24:28.690,-1024,1656,16388,23.54,-886,26,4840
15:24:28.804,  468,636,13296,23.49,-1814,180,3388
15:24:28.914,  724,956,15368,23.49,-1658,-1112,1476
15:24:29.019, -828,228,20548,23.54,809,1628,-623
15:24:29.125,-2492,-1556,21132,23.64,-163,5045,-2579
15:24:29.234,-2196,-1236,16204,23.49,364,-841,-2544
15:24:29.304, -808,656,13472,23.54,1069,2622,-3121
15:24:29.409,    4,860,14092,23.54,1904,-2372,-1466
15:24:29.523, -840,1140,18316,23.59,1157,-1988,-220
15:24:29.628, -376,2880,20128,23.54,1146,-2423,672
15:24:29.737, -372,3504,17276,23.54,1443,2003,2754
15:24:29.847,-1800,1884,15816,23.59,-1409,2385,3816
15:24:29.920,  364,432,13076,23.54,-2193,-2642,2222
15:24:30.033,  720,472,15356,23.54,-2567,-1794,985
15:24:30.147,-1120,416,20172,23.49,-1672,4,-1226
15:24:30.252,-3196,-1428,21140,23.54,269,5641,-2354
15:24:30.366,-2548,-1052,16548,23.49,450,-850,-3724
15:24:30.442,  268,476,12156,23.59,3221,486,-5344
15:24:30.557, 1596,1836,14088,23.45,2694,178,-3265
15:24:30.666, -832,3576,20956,23.59,996,-221,-1270
15:24:30.771,-2252,3656,23060,23.49,86,-2186,1046
15:24:30.875,-1032,3416,16412,23.59,-965,-2012,3750
15:24:30.984, -196,2020,13240,23.54,-1292,1639,5266
15:24:31.056,  564,876,13092,23.54,-2081,-74,2758
15:24:31.166,  428,856,19000,23.54,-900,-3346,1134
15:24:31.274,  344,148,20912,23.49,-1013,-1540,-1008
15:24:31.379, -848,-2720,17712,23.49,465,3508,-3687
15:24:31.485,-1628,-752,15820,23.45,798,22,-5333
15:24:31.595, 1620,1436,11960,23.59,2052,-362,-4835
15:24:31.700, 2056,2176,15092,23.49,-416,-256,-1802
15:24:31.776, -424,2340,21716,23.49,459,-1972,-161
15:24:31.884, -608,3420,22212,23.45,993,680,2295
15:24:31.990, -220,2816,16260,23.49,-1438,899,4970
15:24:32.100,   36,928,13412,23.49,-1557,1699,5253
15:24:32.210, 1064,200,14116,23.45,-1241,-2047,3321
15:24:32.324, 1312,240,18976,23.54,-1342,-2263,1229
15:24:32.396,  856,-1496,20868,23.45,-1054,-14,-743
15:24:32.501, -428,-2956,17236,23.4,-1109,1734,-3921
15:24:32.611, -452,-516,14972,23.45,638,1292,-5374
15:24:32.721, 1624,2292,11724,23.45,1236,677,-4236
15:24:32.835, 2288,1980,16268,23.4,725,-999,-1823
15:24:32.906, 1348,2612,20976,23.35,2767,-443,733
15:24:33.016, -852,2820,21560,23.54,33,1931,3145
15:24:33.126, -704,2580,15768,23.45,-1669,-1785,5419
15:24:33.236,  476,380,11908,23.4,-1998,773,3787
15:24:33.350, 1812,-64,13516,23.45,-1657,-1188,2022
15:24:33.421, 1588,588,20524,23.45,-1158,-1117,270
15:24:33.527,  700,-1168,22960,23.49,-1426,1368,-2219
15:24:33.637, -164,-2592,16488,23.45,-102,-70,-4230
15:24:33.751, -224,216,13456,23.45,1704,1906,-4186
15:24:33.860, 1728,2184,12540,23.49,1072,129,-2274
15:24:33.961, 2444,1504,16964,23.4,1406,-1691,-630
15:24:34.070, 1740,2208,20484,23.49,1920,0,648
15:24:34.146, -956,2772,19808,23.45,1603,3553,3166
15:24:34.251, -528,1444,16248,23.45,-1053,123,4347
15:24:34.365, 1040,-152,12252,23.49,-2156,1921,2853
15:24:34.466, 1624,344,15412,23.49,-2161,-1336,2238
15:24:34.576,  784,48,21232,23.45,-765,-1132,496
15:24:34.690, -200,-2168,21272,23.4,-2225,2230,-1957
15:24:34.766, -940,-2568,16756,23.49,-239,145,-4061
15:24:34.874, -368,-348,14104,23.35,1670,-266,-4724
15:24:34.983, 2160,272,12628,23.4,828,-1350,-3834
15:24:35.088, 1912,452,16932,23.45,1144,-917,-2713
15:24:35.202, 1324,780,20456,23.45,1392,-672,-1538
15:24:35.278, -236,2516,19204,23.4,550,3411,913
15:24:35.392,   16,2676,16368,23.35,-1514,493,3843
15:24:35.500, 1224,284,12316,23.35,-2127,-199,3428
15:24:35.611, 1120,-456,16484,23.4,444,-907,2218
15:24:35.725, 1588,-204,20420,23.4,233,-1014,-818
15:24:35.793,-1280,-1648,21764,23.45,1004,3092,-3847
15:24:35.907, -788,-1368,16932,23.31,823,-3050,-5173
15:24:36.017,  500,588,13372,23.45,890,1345,-4018
15:24:36.131, 2012,1808,12780,23.31,352,-611,-3243
15:24:36.207, 1628,3376,18020,23.35,-831,-914,-1509
15:24:36.316, 1696,3924,21120,23.4,-1679,-589,848
15:24:36.426,  532,3404,17324,23.4,1095,2989,4003
15:24:36.540,  104,1260,15124,23.35,-1098,822,4708
15:24:36.647, 1500,-96,13656,23.4,-1703,-2769,3854
15:24:36.723, 2432,352,17088,23.35,-928,-1481,2248
15:24:36.833, 1384,-408,20160,23.4,27,102,132
15:24:36.942, -512,-2264,18760,23.35,939,2671,-1040
15:24:37.051, -780,-528,16464,23.4,1481,-118,-1997
15:24:37.158, 1480,348,12152,23.26,588,-176,-2741
15:24:37.263, 2192,784,15092,23.31,903,-1296,-1751
15:24:37.339, 1424,1300,19864,23.31,-230,-1414,-1022
15:24:37.449,  792,1960,21880,23.26,219,2098,648
15:24:37.559,  472,1552,16392,23.31,-404,588,2488
15:24:37.665,  896,980,13380,23.35,-901,1122,2509
15:24:37.775, 2240,388,14256,23.21,-1702,-1887,1682
15:24:37.889, 1900,608,19416,23.35,-593,-1542,388
15:24:37.958, 1344,-1216,21824,23.4,-143,601,-2373
15:24:38.072,  236,-2408,17204,23.26,378,442,-3253
15:24:38.186,  204,-284,14332,23.21,-1101,661,-3568
15:24:38.291, 2076,832,12008,23.35,369,142,-2924
15:24:38.401, 1884,1496,15936,23.21,-679,-84,-1060
15:24:38.477, 1680,1852,19740,23.26,-315,-723,28
15:24:38.587, -548,2492,20052,23.4,767,4422,2226
15:24:38.698, -624,1236,17580,23.17,-1459,933,5460
15:24:38.808,  760,320,13384,23.26,-1690,-260,4947
15:24:38.915,  652,208,15528,23.31,-1440,-1672,3498
15:24:38.988, 1564,-1012,20500,23.21,-423,-978,1958
15:24:39.097, -864,-3048,22992,23.21,172,1155,-44
15:24:39.207,   44,-2744,16540,23.26,1218,-2602,-1634
15:24:39.317,  480,-868,13036,23.21,558,3241,-1891
15:24:39.427, 1800,-472,11704,23.12,186,1087,-1642
15:24:39.498, 2520,1680,16200,23.07,1074,-95,695
15:24:39.608, 1416,828,20452,23.21,-2392,-1055,2816
15:24:39.718,-1316,688,21200,23.07,1399,1758,4152
15:24:39.819, -728,116,16156,23.21,-193,-495,3733
15:24:39.933, 1068,-900,12464,23.17,1060,1082,3260
15:24:40.038, 1424,-1388,15984,23.21,-161,-1888,1194
15:24:40.149, 1604,-1476,20080,23.26,-997,-3438,-957
15:24:40.225, -260,-3208,21076,22.98,-634,1347,-3171
15:24:40.331,  -36,-1772,15412,23.07,608,1270,-4554
15:24:40.445, 1324,416,11532,23.07,634,3974,-4556
15:24:40.554, 1228,1016,14844,23.12,-33,-839,-2790
15:24:40.659,   40,1968,20776,23.07,-70,-2556,269
15:24:40.765, -588,1704,22712,23.17,0,-850,2749
15:24:40.841,  708,1412,17556,23.07,1079,1229,4574
15:24:40.955, 1480,-688,12384,23.02,922,969,3772
15:24:41.065, 1064,-948,15684,23.17,-518,-1075,1828
15:24:41.170,   88,-216,21176,23.07,259,-1212,-1045
15:24:41.276, -272,-1968,21148,23.07,-2041,-372,-4233
15:24:41.386,  212,-1460,16772,23.07,-1998,2454,-6476
15:24:41.462,  368,636,13244,22.98,-11,2658,-5943
15:24:41.571, 2072,1236,13732,23.12,-1903,-654,-3577
15:24:41.685,  984,1988,17532,22.98,-292,-1673,-1384
15:24:41.792,  572,1992,21524,22.98,3588,-1217,571
15:24:41.901, -492,2276,17904,22.98,500,3464,2716
15:24:42.006,  132,44,14524,22.98,-486,2156,4093
15:24:42.078,  984,-828,13592,23.02,-1071,-981,2883
15:24:42.188,  456,-996,18860,22.98,-1291,-1960,2191
15:24:42.296, -420,-436,21376,23.02,-811,-908,-259
15:24:42.411,-1244,-2620,17184,23.02,1052,1778,-2035
15:24:42.525, -340,-1256,14336,22.98,555,-802,-3503
15:24:42.601, 1680,-312,11772,22.93,1638,-289,-3474
15:24:42.715, 1196,400,16516,22.98,-19,-802,-2606
15:24:42.825,  400,1160,20112,23.02,164,-859,-1308
15:24:42.935,  -48,1896,20732,23.02,1007,2268,824
15:24:43.007, -560,2092,17148,23.07,-147,549,4100
15:24:43.121,  880,396,13232,23.02,-394,539,3178
15:24:43.235, 1780,668,15268,23.02,-652,-2285,2310
15:24:43.346, 1132,644,19928,23.07,-2009,-2796,1543
15:24:43.450, 1848,-696,20176,23.02,-1806,-84,448
15:24:43.522,  572,-1832,17752,22.98,-1276,838,-1258
15:24:43.632,  916,-864,14436,23.02,1064,595,-1467
15:24:43.742, 1656,-324,12188,23.02,1742,-119,-908
15:24:43.856, 1896,-1100,15944,23.07,1153,-80,-163
15:24:43.932, 2556,192,20484,22.93,193,-1328,1291
15:24:44.046,  792,916,19080,23.07,323,3688,1815
15:24:44.156,  440,1152,15212,22.98,-721,352,1248
15:24:44.266, 1280,-192,12304,23.02,-784,1249,538
15:24:44.380, 1548,-172,16388,22.93,-852,-1238,-395
15:24:44.449,  744,-568,21244,22.98,-382,-1407,-1613
15:24:44.563, -720,-1052,21280,22.88,-108,2795,-3364
15:24:44.673, -340,-520,15868,23.02,716,453,-5037
15:24:44.787,  216,900,12560,22.98,1725,3302,-4915
15:24:44.858, 2104,1556,13980,22.98,567,-1779,-2181
15:24:45.000,  916,2152,19840,23.02,1489,-1038,-176
15:24:45.071,  584,2236,22368,22.98,1737,-1170,1360
15:24:45.181, -252,2128,16984,22.84,-265,808,2975
15:24:45.291,  600,748,13312,22.98,-590,1152,3272
15:24:45.405, 1184,-200,13044,22.88,-1911,173,1769
15:24:45.476, 1536,684,18644,23.02,-771,-1993,1145
15:24:45.581,  884,228,21560,22.88,-584,-309,-98
15:24:45.687, -768,-2172,18340,22.98,-421,2656,-3006
15:24:45.801,-1040,-1156,16540,22.84,1109,-989,-4222
15:24:45.916, 1668,952,12592,22.93,1813,-571,-3745
15:24:45.992, 2572,1304,14884,22.98,385,-611,-2003
15:24:46.106, 1160,1524,19880,23.02,276,-1988,-598
15:24:46.216, 1272,1176,22152,22.93,352,244,-238
15:24:46.320, -208,2472,17584,22.98,-698,2048,1243
15:24:46.426, 1028,968,12560,22.93,-2217,2239,1348
15:24:46.540, 2316,1072,13240,22.98,-3200,-1106,650
15:24:46.612, 1528,1544,20052,22.84,-1779,-2080,53
15:24:46.726, 1284,776,21304,22.98,530,-414,-952
15:24:46.836,   88,-1360,17672,22.93,2003,852,-94
15:24:46.945,  280,804,15472,22.98,418,822,1399
15:24:47.055, 2044,1416,12624,23.02,667,1828,1502
15:24:47.155, 1620,828,16328,22.88,41,-484,2588
15:24:47.261,  636,808,20844,23.02,641,-2063,2686
15:24:47.338,  -92,2464,21272,22.93,2000,2573,4194
15:24:47.452, -344,2332,16432,22.98,-618,295,7064
15:24:47.561,  592,828,11864,22.84,-873,774,6111
15:24:47.675, 1648,1268,14284,22.88,53,-1621,4985
15:24:47.751,  744,1520,22356,22.93,-189,-536,4557
15:24:47.857, -384,-624,22192,22.88,330,1046,2523
15:24:47.967,-1448,-2312,16480,22.88,423,985,-943
15:24:48.067,  252,-892,14024,22.93,72,-2268,-2751
15:24:48.169, 1780,304,12024,22.88,-17,1547,-2550
15:24:48.283, 1868,1324,15556,22.88,-262,-1136,-2119
15:24:48.397, 1388,2744,20088,22.79,1246,-89,-585
15:24:48.473, -472,3044,22008,22.98,1433,2496,2137
15:24:48.579, -276,3272,16212,23.02,179,-1145,5314
15:24:48.689,  456,2048,13240,22.98,-411,1221,6505
15:24:48.789, 1588,736,13812,23.02,-2136,-1929,4448
15:24:48.899, 1428,312,18580,22.98,-1837,-1564,2434
15:24:49.012, 1540,-488,20376,22.93,-530,-1773,-155
15:24:49.088,  904,-1916,16828,22.88,0,1754,-1894
15:24:49.199,  332,-488,16240,22.88,950,1577,-1871
15:24:49.308, 1976,912,12112,22.84,1815,269,-1329
15:24:49.408, 2684,1716,15528,22.88,981,-685,-228
15:24:49.517, 1028,2264,20120,22.84,-47,-622,1655
15:24:49.631,  -32,2540,22164,22.88,779,1996,2720
15:24:49.703,  296,3792,16384,22.88,976,983,4542
15:24:49.813,  968,1416,13260,22.84,-1009,1844,5309
15:24:49.919, 1920,-72,14100,22.88,-1832,-1470,3820
15:24:50.024, 1060,40,19944,22.88,-979,-1375,792
15:24:50.138, 1756,-176,21128,22.84,-583,-224,-1479
15:24:50.253,  864,-1712,16700,22.88,285,550,-2276
15:24:50.328,   92,-144,14692,22.79,876,1976,-2627
15:24:50.442, 1920,976,11784,22.93,1729,-495,-1135
15:24:50.549, 1800,1984,16492,22.88,799,-672,-66
15:24:50.662, 1824,2204,20124,22.79,1635,-991,1599
15:24:50.738, -132,3384,19864,22.84,1816,4377,2839
15:24:50.848, -272,3012,16528,22.88,-1572,1066,4945
15:24:50.957,  880,972,13336,22.88,-2782,977,4829
15:24:51.070, 1336,-164,16140,22.93,-2040,-2499,2383
15:24:51.145,  728,-432,20140,22.88,-2079,-1150,-942
15:24:51.258, -492,-1764,22104,22.84,-2606,1513,-3256
15:24:51.367,  528,-2360,16020,22.88,-779,-1351,-3900
15:24:51.476, 1076,680,13892,22.93,1421,2426,-3740
15:24:51.591, 2396,1444,12896,22.74,1401,136,-1795
15:24:51.667, 1936,1792,17536,22.88,296,-1043,-214
15:24:51.776, 1540,2068,20616,22.84,618,-2069,1868
15:24:51.886,   40,3480,19240,22.79,1116,3522,4042
15:24:51.996, -128,2520,15464,22.84,-464,407,6070
15:24:52.106, 1440,652,11300,22.88,-2007,348,5891
15:24:52.182, 1860,-896,16000,22.93,-678,-1281,5381
15:24:52.284,  472,-192,22064,22.88,-1711,356,1495
15:24:52.394, -920,-1756,22428,22.88,-879,2830,-2109
15:24:52.508, -400,-2128,15784,22.98,1842,-1823,-2968
15:24:52.617,  400,-92,12800,22.93,3646,2617,-4112
15:24:52.690, 2088,1724,13384,22.88,2217,-456,-1748
15:24:52.796, 2340,3164,17796,22.84,-8,-1697,1158
15:24:52.910, 1432,3800,21136,22.84,32,-1309,2680
15:24:53.016, -472,3740,18828,22.88,2330,2933,4963
15:24:53.130, -312,2644,15552,22.84,-25,975,6319
15:24:53.236, 1044,728,12376,22.79,-2452,-326,5541
15:24:53.310, 1688,620,15736,22.74,-2540,-2141,4539
15:24:53.423, 1292,-80,20128,22.79,-259,-605,191
15:24:53.533, -640,-504,21980,22.88,190,2619,-1895
15:24:53.644, -276,-1412,16912,22.79,-721,-2625,-1613
15:24:53.753,  796,-100,13824,22.88,-362,2927,-2731
15:24:53.829, 3372,452,12524,22.84,-639,1328,-1376
15:24:53.943, 2468,1632,16356,22.79,-1926,-2473,8
15:24:54.058, 2380,3180,18760,22.93,-749,-3143,1371
15:24:54.131,  100,2264,21828,22.88,2020,964,4151
15:24:54.266, 1480,-12,16732,22.84,676,-1399,6583
15:24:54.342, 2592,-1512,12468,22.88,88,1680,5212
15:24:54.451, 2076,-2028,13720,22.88,289,-194,2387
15:24:54.552,   96,-2608,19052,22.84,359,-1903,-928
15:24:54.662, 1160,-3792,22200,22.79,-780,513,-4224
15:24:54.763,  740,-2324,17940,22.93,-1499,3112,-6418
15:24:54.877, 1256,1148,12772,22.79,-57,3444,-5703
15:24:54.986, 2492,1096,13272,22.84,-457,-1518,-3226
15:24:55.060, 1276,2460,19732,22.88,755,-1524,537
15:24:55.164, 1540,2832,22736,22.74,1559,-1754,4384
15:24:55.270, 1000,2776,18340,22.88,1801,2902,6529
15:24:55.376, -152,-92,14472,22.84,-95,1436,5610
15:24:55.476, 1376,-1796,13700,22.88,-1598,-1638,2813
15:24:55.590, 1780,-1768,19392,22.84,-1193,-2980,-802
15:24:55.700, 2400,-904,21944,22.79,-2666,-962,-2720
15:24:55.814,  796,-2272,16620,22.84,-3038,419,-4061
15:24:55.885,  192,-708,14944,22.88,1734,2256,-4477
15:24:55.990, 2240,852,12388,22.79,3539,3711,-3387
15:24:56.098, 1976,1440,16340,22.74,1209,-733,-1589
15:24:56.207,  652,2212,20344,22.79,1645,-926,-240
15:24:56.312,  588,3368,22076,22.84,3095,3043,2102
15:24:56.426,  564,3676,16824,22.74,1571,453,6385
15:24:56.536,  564,284,13028,22.79,-2018,-373,5841
15:24:56.612, 2072,-84,13368,22.88,-1124,-1833,4005
15:24:56.726, 1180,552,19172,22.79,-1111,-1207,1156
15:24:56.831, 1212,-788,20596,22.84,-1015,-230,-1187
15:24:56.942,  168,-3048,17364,22.74,-653,1953,-3721
15:24:57.042, -260,-648,13792,22.79,1574,2516,-4348
15:24:57.152, 1876,1492,11588,22.84,2789,3293,-3723
15:24:57.223,  740,2796,17652,22.69,-6,3477,-2082
15:24:57.337,-2368,3160,20180,22.79,637,1085,428
15:24:57.447,-4080,3248,20076,22.74,1565,3464,1410
15:24:57.561,-2968,3332,17132,22.69,-392,115,3098
15:24:57.666,-1120,1068,13524,22.84,-3135,-442,3208
15:24:57.738,  480,360,14444,22.79,-2688,-2853,2252
15:24:57.847,-1436,796,19452,22.84,-220,-2379,-220
15:24:57.957,  316,-840,19344,22.69,-147,-2289,-2293
15:24:58.068, -556,-2568,15752,22.84,-1156,2519,-4622
15:24:58.173,-2244,700,16240,22.74,2518,2709,-5325
15:24:58.282,  512,2048,13540,22.79,2754,-829,-3999
15:24:58.388, 1116,2608,16196,22.74,-736,-1494,-2583
15:24:58.464,  128,3536,20396,22.79,-446,-2157,-288
15:24:58.574,-1252,4580,20128,22.79,-47,2948,2615
15:24:58.679,-1048,2304,16960,22.74,-1999,9,5264
15:24:58.794,  204,72,12188,22.79,-3611,-259,5416
15:24:58.908,  564,-636,15152,22.79,-2136,-1076,2482
15:24:58.984, -328,-780,21232,22.79,-1678,-1523,-874
15:24:59.098, -716,-1224,21684,22.84,57,952,-3280
15:24:59.207,  168,-2960,16180,22.74,123,-2413,-2407
15:24:59.282,-1008,-1772,13196,22.79,903,1393,-3011
15:24:59.387, 1144,240,12204,22.74,2010,-922,-2407
15:24:59.501, 3068,1768,17796,22.88,-144,225,-1154
15:24:59.611, 1168,1484,22616,22.84,-35,-345,1755
15:24:59.717, -660,1772,18152,22.74,1384,566,2020
15:24:59.827, -104,1576,14968,22.79,94,-2121,4425
15:24:59.900,  828,640,11228,22.74,-2733,1389,5540
15:25:00.005, 1600,-672,15512,22.69,-1087,415,3344
15:25:00.119, 2036,-612,20204,22.84,302,-1594,709
15:25:00.229,  352,-2068,22888,22.74,178,3080,-2918
15:25:00.338,-1012,-2532,16252,22.69,751,1273,-5346
15:25:00.447, -884,-164,14880,22.74,2252,725,-5647
15:25:00.521, 1528,1308,13076,22.79,1769,-206,-3129
15:25:00.630, 1996,644,16976,22.74,-655,1138,-2241
15:25:00.740,   64,3412,19764,22.79,265,-2396,441
15:25:00.850, -784,4268,20556,22.74,1549,1407,2226
15:25:00.960, -664,2644,17080,22.69,1209,158,3823
15:25:01.066,  504,424,13192,22.74,-1028,297,4546
15:25:01.142, 1492,316,14536,22.79,-1174,-1775,2954
15:25:01.252,  796,1164,19680,22.84,-206,-1535,648
15:25:01.363, 1276,-156,20684,22.84,-121,-99,-1952
15:25:01.468,  -72,-2188,16972,22.69,-793,1768,-4848
15:25:01.583, -400,-164,13844,22.74,1012,2863,-4210
15:25:01.654, 1492,1660,12412,22.65,1662,-2090,-2258
15:25:01.759, 1160,3064,17864,22.69,922,-915,-1023
15:25:01.873, 1412,3324,20556,22.65,1008,1001,-17
15:25:01.983,-1388,3788,19448,22.6,598,2270,2403
15:25:02.093, -740,2792,16036,22.69,-637,-696,4652
15:25:02.207, 1084,892,12336,22.69,-2693,-275,4351
15:25:02.283,  864,564,15280,22.74,-1318,141,2669
15:25:02.397, -804,1288,21132,22.69,-304,-70,339
15:25:02.506,-1724,-1376,21480,22.6,-577,1472,-3374
15:25:02.582, -948,-1676,16916,22.74,343,-329,-5572
15:25:02.683,  320,1424,13008,22.79,2340,224,-5791
15:25:02.789, 2544,3124,13212,22.65,1696,-2606,-2720
15:25:02.898, 2288,3412,17364,22.79,177,-1353,-270
15:25:03.007, 1124,4444,21272,22.74,762,856,2191
15:25:03.117, -708,3976,18264,22.69,-258,3888,3033
15:25:03.231, -176,2436,15104,22.69,-412,-528,4862
15:25:03.304, 1468,480,11696,22.74,-2390,-2544,4078
15:25:03.418, 2184,200,16696,22.69,-1505,-1401,2277
15:25:03.528, 1840,668,20708,22.69,-1021,-539,-794
15:25:03.642, -816,-1200,21984,22.65,-188,5052,-3407
15:25:03.718,-1200,-1264,16380,22.79,-432,781,-5943
15:25:03.832,  984,1248,11984,22.69,2095,2419,-5516
15:25:03.941, 2472,2396,16056,22.74,1138,-1991,-2592
15:25:04.050,  204,2996,19036,22.79,218,-391,-241
15:25:04.155,-1840,3616,21160,22.74,537,1150,1455
15:25:04.255,-1176,3080,16480,22.79,546,2331,2841
15:25:04.361,-1200,1604,14868,22.65,-1205,209,4540
15:25:04.437, 1956,432,14824,22.69,-3893,-3474,2979
15:25:04.551, 1732,700,18428,22.74,-1765,-2192,1486
15:25:04.656,  396,-272,20352,22.79,-426,-608,-736
15:25:04.766,-1732,-3524,17976,22.65,-377,3487,-2701
15:25:04.880,-2312,-1656,14840,22.69,480,431,-4206
15:25:04.952,  676,832,11300,22.69,2126,-100,-4405
15:25:05.053, 2136,1608,13700,22.74,33,1314,-3139
15:25:05.163,  688,2756,21844,22.69,1610,1284,678
15:25:05.270,-2148,4248,23344,22.74,-916,3344,2451
15:25:05.376, -860,2752,16960,22.79,484,-2607,4648
15:25:05.477, -616,1500,13728,22.74,-1743,-726,6262
15:25:05.586, 1672,-640,12600,22.69,-2726,-3722,3607
15:25:05.691, 2112,-200,17436,22.69,-1578,-3362,1923
15:25:05.806,  920,-1056,21224,22.74,-139,-118,-1435
15:25:05.881, -988,-3372,18080,22.79,1010,4637,-5237
15:25:05.996,-1100,-772,15052,22.74,584,-519,-5766
15:25:06.110, 1136,1164,11936,22.69,367,-759,-4440
15:25:06.224, 2612,1344,15172,22.79,-264,-1473,-2785
15:25:06.296, 1828,2336,20248,22.69,606,586,-655
15:25:06.402, -188,3556,23228,22.79,-255,3873,2370
15:25:06.515, -516,2728,17096,22.84,-688,-1440,4832
15:25:06.629,  104,748,13608,22.69,-1602,-2029,6584
15:25:06.734, 2364,-48,13040,22.74,-1752,-1746,5516
15:25:06.805, 2752,-316,18768,22.69,228,1899,2724
15:25:06.915, 1620,-1480,22072,22.74,-369,1016,-613
15:25:07.025, -644,-3284,17900,22.69,-1499,1233,-2544
15:25:07.131,-1300,-1956,15464,22.79,494,-660,-4259
15:25:07.246, 1620,176,11596,22.69,1566,-85,-3637
15:25:07.319, 2056,776,15284,22.74,378,-976,-2277
15:25:07.429,  968,940,19988,22.79,795,-777,-997
15:25:07.535, -948,1396,22368,22.74,1392,3204,-408
15:25:07.649,  420,1968,15932,22.69,11,-500,1044
15:25:07.759,  732,1176,13260,22.74,-211,1628,2099
15:25:07.864, 1920,548,14580,22.79,-1061,-1077,1147
15:25:07.940, 1360,1152,18888,22.79,-743,-1447,-74
15:25:08.047,  904,-408,20492,22.74,-1143,409,-183
15:25:08.157, -500,-2764,17216,22.69,-895,2368,-1629
15:25:08.266,-1312,-780,15736,22.69,1431,1125,-4664
15:25:08.380, 1628,1124,12596,22.69,1449,-1264,-3254
15:25:08.452, 1912,1192,15200,22.74,-344,-638,-1565
15:25:08.567,  988,1516,20484,22.74,385,-1185,-275
15:25:08.681,-1504,2156,22492,22.79,1958,3823,1489
15:25:08.790, -348,1748,17588,22.74,255,-732,3320
15:25:08.900,  524,816,13492,22.79,-1526,-897,3338
15:25:08.972, 2236,208,12824,22.79,-2048,-3091,1303
15:25:09.082, 1812,-56,17856,22.74,-1784,-1642,337
15:25:09.197, 1600,-852,21164,22.79,-1796,722,-1246
15:25:09.311, -248,-3324,17680,22.74,-1358,3105,-3771
15:25:09.383, -524,-1144,15288,22.69,1321,134,-4846
15:25:09.492, 2336,1316,11836,22.69,2353,-114,-4143
15:25:09.606, 2800,1080,15816,22.74,-102,-1161,-2522
15:25:09.713, 1924,2096,21040,22.79,1359,-1107,331
15:25:09.819, -216,3836,22888,22.65,1181,3605,2695
15:25:09.895,  276,2744,16504,22.69,-1259,-1749,5783
15:25:10.005,  952,152,12240,22.69,-2356,387,5889
15:25:10.119, 2392,-908,12692,22.74,-1584,-1726,3594
15:25:10.224, 1528,-768,19004,22.69,-712,-1280,986
15:25:10.326, 1716,-1544,21316,22.74,-1025,286,-1750
15:25:10.432, -408,-3648,17460,22.69,-654,3355,-4433
15:25:10.538, -740,-932,15144,22.74,2005,-105,-5409
15:25:10.652, 2804,1128,11560,22.69,1885,-284,-4948
15:25:10.757, 3196,1592,15500,22.65,643,83,-3085
15:25:10.832, 1656,2888,21392,22.69,2433,-182,-740
15:25:10.945,  -64,3980,22128,22.74,2432,2579,2046
15:25:11.046, -388,3376,17184,22.69,-364,-1486,5722
15:25:11.154,  736,492,12516,22.65,-1639,421,5713
15:25:11.268, 2192,-312,13284,22.69,-1429,-476,3962
15:25:11.340, 1184,260,20044,22.74,-2059,-81,2039
15:25:11.454, 1008,-1876,21636,22.69,-2564,-1041,-565
15:25:11.569,  488,-3884,16948,22.74,-308,894,-4103
15:25:11.683, -340,-188,15304,22.69,1378,1302,-5227
15:25:11.759, 2532,1456,11756,22.74,843,-1277,-4189
15:25:11.864, 3388,948,15484,22.74,131,-1551,-2853
15:25:11.974, 3024,2436,20528,22.79,1437,-1407,66
15:25:12.082,  496,3836,20424,22.65,2176,4557,2490
15:25:12.192, -428,2564,16868,22.74,-659,98,5225
15:25:12.301, 1432,324,12156,22.69,-1116,1067,4983
15:25:12.377, 2416,-344,14776,22.74,-916,-558,2818
15:25:12.486, 1156,-188,20216,22.65,-877,-577,190
15:25:12.592, -108,-1984,22684,22.69,-1587,2305,-2474
15:25:12.701,  -76,-3656,16816,22.65,158,-888,-5250
15:25:12.815,  168,552,13188,22.69,1939,1470,-5875
15:25:12.887, 2280,2144,12596,22.69,1353,-945,-3844
15:25:13.002, 2716,2740,17036,22.65,71,-409,-1671
15:25:13.107, 2328,2788,21244,22.79,1042,-332,413
15:25:13.215,  524,3656,19556,22.65,684,2867,2886
15:25:13.323, -652,2728,16900,22.69,-1617,110,6058
15:25:13.436, 1452,148,11832,22.6,-1964,-1086,5086
15:25:13.512, 2168,-656,15196,22.65,-970,-2247,2684
15:25:13.621, 1628,-1044,20576,22.69,-1310,-1142,-237
15:25:13.730,  -24,-3084,22264,22.65,-2217,3302,-4187
15:25:13.844, -116,-3372,15784,22.69,113,-881,-6361
15:25:13.921,  820,1000,13248,22.69,2607,1311,-6808
15:25:14.028, 3112,2216,13216,22.65,1476,-1401,-4166
15:25:14.138, 3396,2544,17624,22.69,-951,-1671,-2153
15:25:14.248, 3700,2920,20644,22.65,1207,-165,513
15:25:14.358,  612,3496,18720,22.69,2035,4489,2418
15:25:14.434, -240,2352,15636,22.69,28,576,5531
15:25:14.544, 1612,224,12444,22.65,-1662,-440,4893
15:25:14.650, 2476,-96,15436,22.6,-980,-1481,3674
15:25:14.759, 2248,-284,20592,22.65,-644,510,1296
15:25:14.864, -672,-2364,21720,22.69,-1024,3878,-2676
15:25:14.974, -312,-2628,16144,22.69,861,-1495,-6198
15:25:15.079, 1096,928,12872,22.74,2106,455,-6862
15:25:15.151, 2784,2172,12828,22.69,859,-1281,-4166
15:25:15.257, 2324,2928,17760,22.65,-146,-948,-1839
15:25:15.367, 3080,4332,20988,22.74,576,-85,493
15:25:15.477,  268,5088,19084,22.65,867,3593,4039
15:25:15.587,  236,2040,16104,22.69,-1608,-2015,7353
15:25:15.697, 1836,-120,12080,22.65,-1818,-2802,5771
15:25:15.773, 2316,-60,16104,22.65,-147,-1732,3228
15:25:15.879, 2520,-648,19956,22.6,-275,275,577
15:25:15.989,  240,-2400,21032,22.51,-1407,4840,-2425
15:25:16.103,  484,-1812,17368,22.65,-115,-993,-3996
15:25:16.209, 1676,352,12336,22.6,948,1155,-4930
15:25:16.319, 3068,1516,12872,22.55,1156,-101,-3929
15:25:16.395, 1532,2464,19304,22.6,1049,662,-1760
15:25:16.505, 1968,3372,23560,22.55,1066,-970,1057
15:25:16.619, 1212,3812,17436,22.55,1172,927,4026
15:25:16.726,  804,2520,14028,22.6,-1119,-1281,5247
15:25:16.830, 2400,200,12016,22.51,-2460,-827,4069
15:25:16.906, 2228,-16,15560,22.6,118,1402,2478
15:25:17.016, 1568,48,20912,22.65,-200,496,-321
15:25:17.125, -320,-2324,19920,22.55,-510,4721,-2629
15:25:17.239, -404,-1016,16696,22.6,793,-1275,-4147
15:25:17.316, 2448,824,11348,22.65,3197,429,-4962
15:25:17.429, 2432,1836,14192,22.6,1596,779,-3104
15:25:17.539,  196,3224,20732,22.6,1175,-286,-1021
15:25:17.648, -240,4264,23712,22.55,-337,1758,914
15:25:17.753,   60,4756,16676,22.51,-1122,-1785,3971
15:25:17.829,  508,1500,12788,22.6,-3135,1134,6254
15:25:17.943, 1924,-124,11904,22.55,-3355,-1695,3766
15:25:18.054, 1452,-500,17324,22.51,80,-1420,1091
15:25:18.168, 1564,-628,21628,22.55,-755,511,-1963
15:25:18.244, -320,-3000,18456,22.55,-1358,4341,-4465
15:25:18.358, -968,-972,15956,22.6,1542,75,-4887
15:25:18.468, 1692,1636,11284,22.55,2855,-35,-5212
15:25:18.578, 2132,2148,15700,22.55,1266,-1250,-3929
15:25:18.689, 1204,4700,21664,22.51,2073,553,-560
15:25:18.765,-1096,4812,21912,22.55,885,3089,2894
15:25:18.879, -808,3116,16648,22.46,-990,-2048,5816
15:25:18.993,  580,1384,13280,22.51,-2329,1007,6617
15:25:19.069,  408,-52,13536,22.46,-2819,-31,4414
15:25:19.179,  -96,-1316,18252,22.51,-1892,-3222,351
15:25:19.290,-1036,-1704,22740,22.46,-381,6064,-2307
15:25:19.404,-1376,-2188,17668,22.51,-434,2052,-3128
15:25:19.480,  180,64,13828,22.51,567,327,-4095
15:25:19.590, 1996,528,13032,22.41,1249,-1696,-2945
15:25:19.698, 1360,524,17084,22.46,-265,-395,-2238
15:25:19.811,  264,1396,20936,22.46,-792,-2357,171
15:25:19.919, -512,1868,18800,22.41,-125,3011,2753
15:25:19.994,    8,1220,15860,22.41,-1741,-1654,4815
15:25:20.107, 1424,-452,12112,22.46,-1185,-796,3844
15:25:20.221, 1408,-1112,15296,22.37,-398,-1763,2072
15:25:20.331, -100,-1172,19708,22.32,-1030,95,278
15:25:20.403,-2668,-2572,22160,22.32,-134,4297,-2108
15:25:20.511, -916,-2592,15580,22.37,600,-1007,-3058
15:25:20.625,  684,-96,12628,22.41,1920,297,-3072
15:25:20.733, 2260,40,13484,22.41,1594,-530,-2784
15:25:20.839, 1772,444,18752,22.32,2003,689,-2248
15:25:20.948,  740,1972,22884,22.46,1157,1064,184
15:25:21.024, -448,2808,18000,22.41,20,-518,4085
15:25:21.137,  124,720,14460,22.41,-1412,-1147,4589
15:25:21.251, 1504,-848,12264,22.37,-942,-985,2324
15:25:21.360, 1644,-184,16972,22.27,172,-787,1028
15:25:21.437,  496,-664,21088,22.41,-1366,-258,-282
15:25:21.546,-1084,-2652,18856,22.37,-1190,2763,-3070
15:25:21.651, -732,-1600,16372,22.32,855,753,-3819
15:25:21.759, 1428,752,12372,22.41,1913,2033,-2946
15:25:21.873, 2148,1484,15412,22.37,711,-1647,-746
15:25:21.978, 1504,1336,20728,22.37,1113,-1958,1830
15:25:22.084, -248,2044,23116,22.32,1029,-108,4916
15:25:22.157,  260,1912,16132,22.27,-817,-1941,6630
15:25:22.266,  472,784,12792,22.27,493,2252,6368
15:25:22.366, 1288,-1128,12952,22.27,970,339,2201
15:25:22.477, 1372,-1180,18988,22.22,-28,-1880,-328
15:25:22.587,  884,-1124,21680,22.32,-2130,-450,-3078
15:25:22.701, -176,-1396,17092,22.27,-1662,2137,-6393
15:25:22.777, -252,288,15392,22.27,522,1332,-6404
15:25:22.887, 2240,1160,12332,22.32,1500,-703,-5440
15:25:22.998, 2844,1928,15800,22.22,86,-1420,-3112
15:25:23.111, 1568,3032,20556,22.27,1033,-183,-597
15:25:23.219, -688,3204,21580,22.22,932,1484,2485
15:25:23.328,  392,1668,15752,22.27,-281,-1465,5513
15:25:23.400, 1152,412,13112,22.27,828,1202,5191
15:25:23.512, 2108,736,15212,22.22,256,-712,3461
15:25:23.624, 1904,1632,20232,22.18,-169,-1244,1169
15:25:23.701, 1908,-828,21088,22.22,-590,983,-1961
15:25:23.807,  608,-2164,17232,22.22,146,-106,-4830
15:25:23.945,  752,556,13800,22.27,177,788,-5175
15:25:24.016, 2508,1196,13028,22.18,419,-25,-2757
15:25:24.127, 2244,1588,16728,22.22,-796,-657,-2028
15:25:24.237, 2344,2580,19568,22.22,-854,-2753,-1139
15:25:24.348, 1128,3084,19712,22.13,-1763,3492,831
15:25:24.424,  464,2456,16356,22.18,-309,618,4280
15:25:24.538, 1468,-408,12800,22.18,-536,950,4288
15:25:24.649, 1436,-36,14888,22.22,382,-1200,2637
15:25:24.763, 1448,436,19120,22.22,1044,-498,-780
15:25:24.872,  964,-1464,21764,22.18,-711,2959,-3110
15:25:24.939, -732,-1444,18144,22.27,-886,1192,-4446
15:25:25.052,  896,-92,13256,22.18,23,200,-4066
15:25:25.161, 2684,1344,12740,22.18,-341,-1617,-1868
15:25:25.271, 2052,1408,17948,22.22,893,-633,-1060
15:25:25.379, 2548,3280,22132,22.22,2356,-791,274
15:25:25.455, 1096,2016,18020,22.18,1524,1959,3409
15:25:25.557, -428,1424,16064,22.13,-1610,1778,6393
15:25:25.667, 1128,928,13584,22.22,-1265,-1034,4314
15:25:25.781, 1564,684,15848,22.27,-880,-1902,2768
15:25:25.891, 1980,-1140,20096,22.13,-117,-1212,-486
15:25:26.005,  112,-2192,20360,22.22,-886,3119,-2628
15:25:26.076,  488,-2016,16928,22.18,-91,-2278,-1757
15:25:26.190, 1608,-740,12032,22.18,254,207,-3100
15:25:26.301, 2820,-272,13684,22.13,694,-1169,-2602
15:25:26.411, 2540,1428,19228,22.08,-805,-1224,-2035
15:25:26.482, 3188,3536,22056,22.18,672,-1107,334
15:25:26.597, 1544,3048,16460,22.22,-154,1044,3481
15:25:26.702, 1636,1236,14676,22.08,328,2076,6306
15:25:26.808, 2404,264,13436,22.13,-839,753,4040
15:25:26.918, 2144,-112,17252,22.13,-4,-264,1783
15:25:27.032, 1304,-752,21208,22.08,432,-794,-380
15:25:27.100,  332,-2468,18396,21.99,214,3141,-1213
15:25:27.243,  -96,140,16564,22.13,148,531,-114
15:25:27.319, 2180,912,11940,22.13,221,420,-30
15:25:27.427, 1976,856,14636,21.99,-104,-149,1328
15:25:27.536,  208,180,20248,22.08,311,-364,1882
15:25:27.646,  644,44,22152,22.08,258,537,3120
15:25:27.719, 1208,-264,15864,22.04,1128,683,3612
15:25:27.833,   68,-380,14388,22.04,-504,2226,2654
15:25:27.943, 1188,-920,14312,22.13,-1688,-1416,-399
15:25:28.043, 1560,240,19380,22.08,-1089,-967,-993
15:25:28.157, 1188,56,20928,22.08,-1971,472,-1427
15:25:28.267,    4,-1992,16444,22.18,127,1259,-1734
15:25:28.339,  304,-864,14640,22.04,1837,1109,-1790
15:25:28.449, 1916,204,13716,22.04,2849,1874,-990
15:25:28.557,  260,808,16980,22.04,715,-835,-368
15:25:28.667,   -8,836,19608,22.13,677,-2030,536
15:25:28.777, -860,1276,21196,22.08,127,2871,1782
15:25:28.853,  176,1876,16320,22.08,-382,844,4416
15:25:28.963,  468,832,13332,22.04,-1051,2593,5042
15:25:29.075,  500,504,14716,22.04,-1359,-2598,3765
15:25:29.185,  236,188,18940,22.08,-1050,-548,2187
15:25:29.291, -984,-1548,20972,22.08,-1900,1471,83
15:25:29.395, -484,-2776,16108,22.13,-1077,-80,-2408
15:25:29.471, -484,-212,15432,22.04,2685,488,-3360
15:25:29.611, 1812,624,13016,22.08,1502,-981,-2375
15:25:29.687, 1432,1760,16356,22.18,-375,-1233,-1611
15:25:29.797,  656,3024,20208,22.04,-557,-888,-228
15:25:29.902, -572,3156,20808,22.08,421,1735,2274
15:25:30.003, -524,2664,16800,22.08,1477,301,6904
15:25:30.104,  664,532,12036,22.04,-554,97,7214
15:25:30.209, 1080,48,14836,21.94,-874,-1215,5960
15:25:30.315,  108,252,20412,22.04,-789,-2322,3792
15:25:30.420,  796,-1432,22036,22.08,-1242,-332,1207
15:25:30.525,  656,-2172,16924,22.08,581,-696,270
15:25:30.631,   60,-372,14692,22.04,888,1025,-48
15:25:30.742, 2252,496,12164,22.13,1445,-2268,36
15:25:30.813, 2628,16,15980,21.94,798,-1661,-139
15:25:30.921, 2484,1848,19272,22.08,709,-245,626
15:25:31.031, 1268,3620,19604,22.18,1038,2873,4305
15:25:31.140, -212,2100,17996,22.13,-1008,1344,7243
15:25:31.254, 1204,-200,12672,22.04,-716,-1756,5299
15:25:31.331, 2732,248,14488,22.13,-1241,-1735,3266
15:25:31.437, 2320,-504,20624,21.99,-1139,154,518
15:25:31.545, 1892,-2340,22296,22.13,-1609,765,-3210
15:25:31.651, 2416,-1824,16536,22.04,-181,-1789,-3194
15:25:31.765, 1612,852,14988,21.99,-187,1617,-1569
15:25:31.841, 3384,224,12372,22.04,0,-1048,-387
15:25:31.950, 3612,88,16924,22.04,600,-288,-86
15:25:32.064, 3520,408,20976,22.13,3327,-748,1134
15:25:32.178, 1244,2048,17328,22.08,1909,1382,2777
15:25:32.255,  832,2496,14160,22.08,-576,482,4315
15:25:32.365, 1844,668,12260,22.04,-707,1973,3645
15:25:32.479, 2624,460,16300,22.08,-1546,-1132,2617
15:25:32.593, 2948,-276,20864,22.08,-728,579,1354
15:25:32.669, 1052,-3400,21020,22.04,-717,3812,-1816
15:25:32.783,  232,-1756,16168,22.04,-99,-1791,-3976
15:25:32.888,  568,-56,13760,22.18,990,1157,-4840
15:25:32.999, 2860,312,12848,22.08,485,-3192,-2909
15:25:33.075, 3460,1416,17344,22.08,-245,-644,-901
15:25:33.189, 3364,1852,20620,22.08,2205,-1496,307
15:25:33.298, 1240,2592,19028,22.13,2982,2924,3519
15:25:33.409,  808,944,15380,22.13,-1209,422,4863
15:25:33.514, 2096,-360,12228,22.18,-1072,-872,3683
15:25:33.628, 3044,776,16392,21.99,-851,-76,3126
15:25:33.700, 2396,-984,21320,22.04,-1138,-716,472
15:25:33.805, 1472,-1928,21268,22.04,-423,2545,-2272
15:25:33.916,  688,-2576,16108,22.18,-125,-1642,-2975
15:25:34.025, 1176,56,13292,22.04,470,1182,-4168
15:25:34.139, 2788,524,12368,22.04,761,-892,-3882
15:25:34.240, 3856,632,16664,22.18,-122,-495,-2651
15:25:34.316, 3736,2128,20232,22.08,219,-246,-1281
15:25:34.417, 1608,2424,20856,22.13,903,2904,1576
15:25:34.526, 1032,1508,16628,22.13,398,-1555,4259
15:25:34.632, 1732,-1080,13028,22.13,13,-42,3255
15:25:34.737, 2540,-1264,14472,22.08,-164,-1803,253
15:25:34.852, 2580,-524,20192,21.99,-902,-431,-2054
15:25:34.957, 2232,-1656,21320,21.99,-3372,385,-3838
15:25:35.033, 2164,-2868,15652,22.13,-2647,-1134,-5901
15:25:35.172, 1572,-724,13548,22.04,899,2183,-6495
15:25:35.248, 4016,684,13036,22.13,1304,-31,-4835
15:25:35.362, 4992,852,18128,22.13,-997,-224,-2674
15:25:35.472, 4372,232,20320,22.04,-602,-406,-2242
15:25:35.582, 1168,1856,18532,22.13,1001,3622,-1131
15:25:35.658, 1484,1072,15988,22.08,-417,-343,2331
15:25:35.763, 2328,392,12976,22.04,-806,2269,1550
15:25:35.864, 3512,196,15124,22.08,94,-1376,702
15:25:35.974, 2524,468,20548,22.18,-959,703,-264
15:25:36.087, 1144,-912,21716,22.08,-1348,1963,-1381
15:25:36.201,  732,-2652,17100,22.08,-2197,-1504,-2590
15:25:36.278, 1292,-276,14180,21.99,978,1619,-2634
15:25:36.388, 3012,384,11772,22.13,772,627,-1118
15:25:36.502, 3192,508,16360,21.94,336,-1098,-220
15:25:36.608, 3224,1644,20696,22.13,1697,-1487,1401
15:25:36.722, 1892,2300,19812,22.04,2263,542,3446
15:25:36.793, -148,1992,17656,21.99,-132,4641,5312
15:25:36.907,  788,-796,11840,22.04,-1322,1183,2278
15:25:37.017, 2364,-84,16288,21.99,-150,-3159,1340
15:25:37.131, 2644,-20,20552,21.99,-1106,-835,456
15:25:37.202,  132,-1800,22424,22.08,3,3263,-913
15:25:37.312,  -80,-1624,16788,22.04,1139,-844,-1537
15:25:37.415, 1080,-8,12540,22.04,668,1331,-2463
15:25:37.529, 2800,724,13640,21.94,371,-1700,-1254
15:25:37.636, 3512,556,17308,22.04,-1050,-1501,-535
15:25:37.746, 2524,1640,20500,22.04,-126,-81,692
15:25:37.822, -144,1620,20080,21.94,483,4148,2913
15:25:37.927,  960,2308,14836,22.04,-1207,-2006,4793
15:25:38.028, 1048,472,12356,22.04,-1513,636,3824
15:25:38.138, 2344,-396,15880,21.94,-1112,-2386,2301
15:25:38.252, 2712,-232,19924,22.04,353,150,904
15:25:38.357, -496,-1348,22820,22.04,94,2846,-844
15:25:38.432,  144,-1296,16092,22.04,881,61,-1640
15:25:38.547,  828,-8,13796,22.04,988,3223,-2419
15:25:38.652, 2684,532,13452,21.99,1050,-2682,-2638
15:25:38.765, 3296,888,16796,21.99,-231,-826,-1318
15:25:38.878, 2140,2084,20504,22.04,321,27,243
15:25:38.983, -576,2372,21760,22.04,1208,3126,1991
15:25:39.054,  -40,2272,15784,21.94,-197,-2002,3805
15:25:39.155,  828,780,12832,21.94,-825,1669,4116
15:25:39.269, 1760,608,14612,21.94,-663,-1044,3113
15:25:39.378, 2160,468,19132,21.85,-208,261,2254
15:25:39.492,  772,-392,21600,21.85,-889,1048,1254
15:25:39.598,  212,-2120,17192,21.94,-1948,-273,-1131
15:25:39.673,  244,-860,15276,21.94,785,932,-2122
15:25:39.782, 1812,516,11480,21.99,1136,-314,-1979
15:25:39.896, 1800,676,16228,21.94,-115,-89,-1062
15:25:40.002, 1416,1384,21316,21.89,584,-2874,836
15:25:40.107, -712,2412,21904,21.99,1120,3709,1752
15:25:40.216,  844,2676,14868,21.89,2413,-1415,4084
15:25:40.289, 1764,1804,11568,21.94,-50,1287,4522
15:25:40.405, 1440,1524,16524,21.99,-1178,-847,3335
15:25:40.509, 1488,1080,21296,21.94,-206,-1432,1112
15:25:40.614,  576,-492,22428,21.94,-413,968,-1416
15:25:40.724,  344,-1380,15888,21.89,-1423,-932,-2798
15:25:40.829, 1060,480,12512,21.89,609,682,-1993
15:25:40.943, 2096,596,12584,21.8,5,-754,-773
15:25:41.014, 2948,252,17220,21.89,127,-827,164
15:25:41.123, 2504,1836,20808,21.89,140,847,665
15:25:41.233,  396,1992,19420,21.89,2501,1031,1340
15:25:41.339,  440,1972,16412,21.89,-1479,1123,2590
15:25:41.448, 1648,92,12240,21.89,-2726,-820,1753
15:25:41.558, 3232,-84,15636,21.99,-567,-2049,1093
15:25:41.634, 2328,708,21192,21.89,-417,1826,289
15:25:41.741, -184,-612,22240,21.99,-1072,979,-762
15:25:41.850,  520,-1724,16120,21.99,431,-1751,-1515
15:25:41.964,  784,700,12684,21.99,1295,2602,-1420
15:25:42.078, 2596,1144,12368,21.94,490,404,-664
15:25:42.150, 2832,528,19264,21.99,92,-537,1516
15:25:42.260, 1828,1144,21704,21.89,534,-421,2472
15:25:42.365,  176,1460,18236,21.99,1102,112,3656
15:25:42.475, -228,740,15064,21.94,7,1508,2541
15:25:42.585, 1632,-892,11876,22.04,-468,592,-443
15:25:42.661, 2492,404,17476,21.94,-2250,-2384,-637
15:25:42.771, 2604,280,20928,21.94,-1492,-2700,-948
15:25:42.880,  -44,-1948,20536,22.04,-706,1435,-3054
15:25:42.986,  428,-1324,16176,22.04,1067,-739,-3565
15:25:43.100, 1520,732,11900,21.94,831,1688,-3236
15:25:43.172, 2984,668,13732,21.99,630,-1486,-1032
15:25:43.279, 3492,400,18788,21.94,1604,-834,563
15:25:43.386, 2904,1712,22100,22.04,2335,1136,1859
15:25:43.492,  476,2088,17356,21.94,836,3492,1828
15:25:43.602,  556,1244,14656,21.99,131,787,2724
15:25:43.712, 2100,476,12628,21.94,-2232,-1419,1902
15:25:43.816, 3096,416,16652,22.08,-168,-1693,1361
15:25:43.893, 2372,972,21396,21.99,-288,-338,458
15:25:44.002,-1240,-1072,21304,21.99,361,3568,-682
15:25:44.116, -120,-988,16872,22.04,-680,-724,-1801
15:25:44.230, 1756,720,11548,21.99,785,-748,-2602
15:25:44.306, 3328,500,13816,21.99,717,-1702,-1227
15:25:44.416, 2784,688,19708,22.08,824,-619,308
15:25:44.521, 1640,1896,23360,22.08,1433,927,1409
15:25:44.628, 1152,2936,16204,22.08,-102,678,2080
15:25:44.742, 1248,1712,13196,21.99,19,2513,3075
15:25:44.852, 1372,760,13364,22.08,-1797,-174,2111
15:25:44.962, 2860,100,16932,21.99,-1217,-4026,879
15:25:45.038, 2400,-568,20632,22.04,-1051,-884,-1868
15:25:45.143,  628,-1808,19792,21.94,205,2270,-4501
15:25:45.252,  744,60,16692,21.94,593,1335,-3878
15:25:45.366, 1980,1180,12020,22.13,458,1458,-2271
15:25:45.476, 3224,920,14072,22.04,630,-2116,-823
15:25:45.548, 2596,1356,20240,22.04,1733,-487,902
15:25:45.662, 1124,2060,23676,21.94,823,2482,1924
15:25:45.772, -180,2340,17268,22.04,213,151,3014
15:25:45.886,  712,1184,13084,22.13,-76,-477,3488
15:25:45.958, 2032,280,12768,22.04,-29,11,1565
15:25:46.072, 4680,1392,17284,22.04,-37,-466,854
15:25:46.178, 2896,-88,22300,22.04,-2415,-1124,560
15:25:46.288,-1220,-2752,18296,22.13,-1864,1671,-2377
15:25:46.393, -468,-1172,14752,22.04,16,-1778,-5164
15:25:46.469, 2532,736,10984,22.04,1387,2166,-5509
15:25:46.584, 3528,1200,15800,22.08,-870,-387,-2661
15:25:46.694, 3004,1444,20712,22.08,1520,-1942,-325
15:25:46.803, 2388,2988,23016,22.08,1792,78,921
15:25:46.918, 1108,3316,15860,22.04,978,2568,3746
15:25:46.990,  568,876,12808,22.08,-965,4280,4935
15:25:47.095, 1456,64,13992,22.08,-870,-506,4133
15:25:47.201, 2040,-552,19456,22.08,599,-1190,1356
15:25:47.307,  736,-1476,21756,22.13,281,470,-3396
15:25:47.412,-2280,-1948,18836,22.08,-1120,1917,-4894
15:25:47.522,-1400,588,14364,22.08,-961,-734,-4397
15:25:47.636, 2080,1964,10868,22.08,661,-2074,-5001
15:25:47.741, 3672,1380,15456,22.22,625,-282,-2576
15:25:47.817, 1468,2704,20084,22.08,1759,426,-276
15:25:47.926,-1248,4276,23524,22.08,1063,2272,2676
15:25:48.036, -416,3332,15804,22.08,-2202,-966,4436
15:25:48.145, 1304,376,12244,22.13,-2009,868,4488
15:25:48.249, 2052,-216,14932,22.08,-751,1230,3121
15:25:48.325, 1912,732,20380,22.08,-1138,-3121,1020
15:25:48.431, 1524,-1864,21420,22.08,-1536,-204,-1213
15:25:48.541, -784,-3200,16364,22.18,-1488,1406,-4339
15:25:48.655, -184,-376,14780,22.13,3203,550,-4386
15:25:48.760, 2068,1596,11916,22.13,3286,2203,-2370
15:25:48.862, 1552,2436,15464,22.04,707,-1636,-340
15:25:48.968, 1388,2752,19912,22.13,864,-1496,1117
15:25:49.078, -368,4072,22648,21.99,949,5153,2772
15:25:49.150, -992,2196,17056,22.13,-26,1900,4652
15:25:49.264,  460,512,13876,22.13,-2781,-1338,4764
15:25:49.369, 2976,-1116,13664,22.13,-1979,-5259,4130
15:25:49.473, 2956,192,18812,22.18,-2494,-1415,210
15:25:49.585, 1736,-1560,21696,22.08,-3821,-1619,-2684
15:25:49.698,  748,-2204,16740,22.18,-1260,-700,-5582
15:25:49.774, 1172,-736,15744,22.13,1606,943,-6561
15:25:49.883, 3180,524,11000,22.13,2157,1488,-4211
15:25:49.988, 4052,1916,13824,22.13,971,-978,-1487
15:25:50.100, 3256,2672,20464,22.13,1353,-613,1435
15:25:50.210, 1176,3304,23676,22.18,1476,5229,4440
15:25:50.282,  688,2104,16888,22.18,903,862,5812
15:25:50.396, 1068,228,13064,22.27,-1187,2966,3913
15:25:50.501, 2608,-420,12536,22.13,-1175,-1028,1562
15:25:50.612, 1080,772,21168,22.13,-88,509,528
15:25:50.721, -132,-752,22168,22.13,-146,702,-1318
15:25:50.831,-1004,-724,18180,22.13,1959,585,-4854
15:25:50.903,  524,1144,14328,22.22,887,-765,-4435
15:25:51.017, 2652,1852,12348,22.13,-266,-1169,-2325
15:25:51.124, 2908,2028,16372,22.13,-1312,-2900,-100
15:25:51.233, 3356,2532,20108,22.08,-1210,-2110,1654
15:25:51.343,  700,3136,19292,22.13,-1265,3248,3203
15:25:51.450, -172,2256,16260,22.22,-195,2180,5316
15:25:51.555, 1184,-316,13516,22.18,-733,1346,2597
15:25:51.627, 2160,12,14588,22.18,-1912,-1289,444
15:25:51.741, 1592,28,20972,22.18,-893,-837,654
15:25:51.856,  332,-1836,23388,22.13,85,682,-2457
15:25:51.965,  404,-3320,17100,22.18,-230,-2583,-6622
15:25:52.036, 1232,-556,13108,22.27,744,1786,-6751
15:25:52.147, 2788,2032,11664,22.18,-1398,1377,-2618
15:25:52.257, 3912,1252,16892,22.18,194,-1963,83
15:25:52.365, 3868,1728,20612,22.22,1994,-2035,1662
15:25:52.474,  400,1388,19180,22.13,949,3747,2651
15:25:52.550, -428,984,16536,22.22,-956,919,4282
15:25:52.664, 1696,-132,11400,22.27,-1218,1373,2047
15:25:52.778, 3052,-760,15696,22.18,-969,-1189,685
15:25:52.888, 2028,-684,21496,22.18,-1904,-1862,-1999
15:25:52.965, -356,-2356,22564,22.27,-924,2430,-3578
15:25:53.067,  -84,-2436,15664,22.22,-557,1112,-4619
15:25:53.180,  496,-232,12264,22.22,1066,2737,-4886
15:25:53.291, 2596,904,13840,22.22,647,-864,-2870
15:25:53.405, 1768,1548,20476,22.13,-1045,-1148,-65
15:25:53.514, 3100,1196,21428,22.18,1485,-2733,2398
15:25:53.590,  172,2260,17872,22.18,2273,3087,3754
15:25:53.704,  156,860,13720,22.18,198,-616,4874
15:25:53.809, 1712,-752,11700,22.18,-1851,-389,4094
15:25:53.923, 2940,-316,16400,22.32,664,-129,2040
15:25:53.994, 1436,-760,22768,22.13,717,797,-1097
15:25:54.104, -644,-2480,20064,22.22,685,2231,-4847
15:25:54.213,  -76,-780,16256,22.32,-674,-49,-3816
15:25:54.327,  380,740,11540,22.27,1472,987,-4121
15:25:54.432, 2716,1144,13516,22.18,2846,-2104,-2988
15:25:54.508, 2948,2628,20760,22.22,862,-1387,-155
15:25:54.622,  940,2856,24388,22.22,-594,1151,1464
15:25:54.732, -168,2892,15796,22.32,-481,-1363,2723
15:25:54.846,  676,2236,12688,22.18,-434,787,4562
15:25:54.922, 1172,616,12312,22.27,-1745,1151,2911
15:25:55.028, 2280,456,17076,22.32,-847,-172,1309
15:25:55.142, 2360,-148,21828,22.22,-1438,1066,788
15:25:55.256, -892,-2396,22136,22.13,-2136,3318,441
15:25:55.366,-1404,-2152,16100,22.27,-489,-1455,-2415
15:25:55.437,  788,-436,11600,22.22,3385,1355,-3397
15:25:55.547, 2344,140,14304,22.18,2200,-1882,-1141
15:25:55.661, 1540,1340,19912,22.27,322,-460,267
15:25:55.771, 2192,1776,21728,22.27,1267,-522,543
15:25:55.880,   -8,2916,17192,22.27,2962,2630,804
15:25:55.957, -412,1164,13388,22.22,150,625,2984
15:25:56.067,  616,-100,13008,22.22,-884,1482,3048
15:25:56.172, 2160,1052,16340,22.32,-2254,406,918
15:25:56.286,  828,636,21196,22.22,2116,900,-1266
15:25:56.391,-3328,672,22568,22.22,1509,3752,-3031
15:25:56.462,-2564,576,16976,22.41,-40,-3100,-2744
15:25:56.606, -464,520,11716,22.22,1436,-258,-3810
15:25:56.677, 2644,1860,12600,22.18,1479,-870,-2861
15:25:56.783, 1552,3588,19908,22.37,2055,2571,313
15:25:56.893,-2116,4272,23292,22.27,-320,1357,1664
15:25:56.998,-1272,3000,15968,22.22,-299,891,1714
15:25:57.104,-2348,2452,14896,22.27,-1970,4063,3242
15:25:57.217, -680,168,13520,22.37,-2483,3463,2938
15:25:57.294,  788,916,16280,22.22,-2901,-1834,756
15:25:57.408,-1340,604,19664,22.32,-949,-264,-1276
15:25:57.518,-5632,-384,21060,22.32,1226,4789,-3340
15:25:57.632,-3872,-1112,14980,22.27,700,-2432,-4553
15:25:57.704,-2324,1020,12592,22.32,4287,2703,-3476
15:25:57.814,  848,2768,14724,22.32,3262,-1615,-1498
15:25:57.924, -268,3744,18780,22.22,792,-2535,-669
15:25:58.034,-1128,3784,22016,22.41,492,-3612,1489
15:25:58.148,-2420,4108,17116,22.37,260,1103,2535
15:25:58.220,-2180,2404,14492,22.32,-2693,-589,3704
15:25:58.334,  464,504,12040,22.41,-2742,1039,2142
15:25:58.445,  168,1460,16596,22.37,-1094,-1015,386
15:25:58.556, -548,92,20144,22.37,-1928,-1293,-2052
15:25:58.665,-2664,-1304,19800,22.27,-2563,4744,-3396
15:25:58.736,-4168,-152,17636,22.32,-1019,1506,-3838
15:25:58.841, -644,1148,12860,22.37,3569,-891,-4322
15:25:58.947, 1008,2028,14072,22.27,1546,98,-2519
15:25:59.057,  784,1968,19364,22.32,1130,-3559,1079
15:25:59.171,-1852,3488,25172,22.41,459,-607,4165
15:25:59.285,-1056,3760,17436,22.37,-510,-3563,5719
15:25:59.361,  132,1468,13032,22.32,-2424,-165,5733
15:25:59.470, 1372,-420,12056,22.22,-4008,1033,2579
15:25:59.581,  792,-1916,17568,22.41,-1559,-940,-1852
15:25:59.657,    4,-2012,21676,22.32,202,-1321,-4251
15:25:59.765,-1012,-1436,19056,22.27,628,4586,-4522
15:25:59.879, -976,-316,15808,22.41,564,-24,-4500
15:25:59.989, 1612,924,11288,22.41,1062,-2372,-4116
15:26:00.102, 2528,1368,14332,22.32,471,-455,-774
15:26:00.178, 1192,1920,20012,22.46,2110,463,2182
15:26:00.287,-1556,2256,23316,22.41,2773,6127,3761
15:26:00.401,-1704,2660,18048,22.32,350,751,4496
15:26:00.515,  128,988,13848,22.27,-1907,-1646,4662
15:26:00.620, 1880,-520,13664,22.37,-3578,-3622,2952
15:26:00.697, 1908,-148,17660,22.37,-2420,-2590,335
15:26:00.802, -176,-1940,23668,22.41,-2229,1016,-2609
15:26:00.912,-1160,-3012,17908,22.46,473,523,-4762
15:26:01.026,  416,-832,12304,22.37,1634,1883,-6611
15:26:01.102, 2268,860,11624,22.32,1836,-803,-4654
15:26:01.216, 2176,1780,17164,22.41,1450,-1721,-2234
15:26:01.330, 2984,3104,20944,22.41,951,-2382,1110
15:26:01.439,  256,3588,20516,22.37,602,5597,2589
15:26:01.549, -852,2088,15936,22.41,-1494,605,3868
15:26:01.620,  520,-88,12340,22.41,-3126,741,3477
15:26:01.732, 1908,-284,15340,22.37,-2816,-2641,1895
15:26:01.842, 2040,-512,20408,22.37,-1051,-867,-87
15:26:01.956,  752,-1984,20440,22.51,-2877,1856,-2280
15:26:02.066,-1876,-3268,17632,22.51,-144,2632,-3541
15:26:02.140,  136,-1120,13676,22.46,1733,-431,-5051
15:26:02.254, 2920,232,12196,22.55,1928,337,-3615
15:26:02.368, 1700,1408,17596,22.41,378,36,-897
15:26:02.475, 1248,1840,21320,22.41,164,-2613,1568
15:26:02.547, -980,2112,20216,22.46,1731,3877,2908
15:26:02.661, -428,2084,15352,22.37,-439,-1143,4685
15:26:02.767,  996,264,11908,22.41,-1894,543,4029
15:26:02.877, 1304,-440,17336,22.51,-1642,-1720,2617
15:26:02.991, 1980,116,20480,22.55,-721,-3038,164
15:26:03.058,  564,-2528,22204,22.46,-1277,1831,-933
15:26:03.168,  404,-2288,15884,22.41,948,-94,-2048
15:26:03.282, 1512,900,12836,22.51,2422,1360,-2795
15:26:03.389, 2924,1684,13368,22.37,788,-2468,-1855
15:26:03.503, 2472,784,17688,22.46,-404,-2247,-507
15:26:03.574, 2512,1804,19840,22.51,-1107,-1260,1718
15:26:03.683, 1016,3176,17972,22.51,1972,6575,2317
15:26:03.793,  560,2088,14508,22.46,1534,5734,4017
15:26:03.902,  572,1688,14372,22.46,-2200,2692,3825
15:26:04.010,    0,436,17128,22.51,-2018,1653,1462
15:26:04.120,-1912,-800,19688,22.51,-1110,-1182,-670
15:26:04.196,-5040,-1652,21220,22.46,584,3979,-1854
15:26:04.307,-3624,-1864,16380,22.46,1544,612,-3385
15:26:04.420,   76,372,12284,22.51,2454,-1531,-3119
15:26:04.530, 1152,932,13656,22.51,1990,-1016,-2385
15:26:04.641,-1664,1804,20072,22.51,2567,-726,-964
15:26:04.717,-1384,2680,21372,22.46,1411,-1737,922
15:26:04.821,-1792,2960,18080,22.46,-763,635,2037
15:26:04.936, -924,580,14412,22.51,-2466,1181,1655
15:26:05.041, 1248,-696,12276,22.51,-3575,-3304,149
15:26:05.155, 1424,-504,17176,22.46,-2271,-3269,-125
15:26:05.227, 1276,-524,20924,22.6,-1702,-12,-2602
15:26:05.342,-2140,-2764,21120,22.51,-1082,2311,-5113
15:26:05.456,-1368,-1936,16484,22.55,411,-1893,-6457
15:26:05.532, 1292,572,11396,22.46,2606,1127,-4839
15:26:05.641, 2672,784,14260,22.6,-763,-1216,-2091
15:26:05.741,  632,1440,21692,22.51,-105,-1819,1069
15:26:05.856, 1484,2228,22788,22.46,1539,-2185,3058
15:26:05.971, 1148,1324,16000,22.55,171,-1084,4373
15:26:06.079,  816,-480,12692,22.41,852,1070,4337
15:26:06.155, 2072,-1248,13180,22.51,-1522,868,1685
15:26:06.269, 2032,-1252,19388,22.46,-1153,-1339,594
15:26:06.374, 3012,-2152,20908,22.46,-1161,-1900,-1842
15:26:06.479, 2284,-2976,17916,22.41,-481,-316,-4940
15:26:06.593,  916,-1228,16292,22.6,2179,2408,-5445
15:26:06.669, 2192,716,13032,22.55,2965,703,-1816
15:26:06.779, 3800,1852,14256,22.46,1354,-2461,1116
15:26:06.893, 2160,2520,19640,22.6,1357,-1084,2578
15:26:07.003, 1624,3316,23860,22.6,-372,-986,3992
15:26:07.108, 3000,2300,16760,22.46,1521,474,4496
15:26:07.214, 2760,684,12836,22.55,403,1565,5180
15:26:07.290, 3392,-904,12228,22.46,-1725,-545,4173
15:26:07.400, 4368,-1292,19152,22.51,-1789,-2494,1589
15:26:07.514, 2972,-992,21992,22.6,-4002,-2513,-2654
15:26:07.623, 3060,-2676,17308,22.6,-643,925,-6963
15:26:07.699, 2232,-2376,15364,22.55,-45,2903,-7545
15:26:07.804, 2664,-264,12332,22.51,985,534,-5220
15:26:07.914, 3968,1304,14036,22.51,-440,-1619,-3002
15:26:08.028, 4300,3248,18796,22.6,782,780,-884
15:26:08.137, 7600,2896,22004,22.6,2988,3058,2393
15:26:08.213, 2300,1852,17624,22.46,1852,2005,3422
15:26:08.323, 1376,104,14420,22.51,329,851,4492
15:26:08.424, 2440,-696,13136,22.6,-2560,-870,3396
15:26:08.534, 2076,-680,17640,22.6,-1981,139,431
15:26:08.635, 2268,-548,20792,22.65,150,2326,-1639
15:26:08.744,  404,-2924,17260,22.51,-659,4675,-2705
15:26:08.852,  640,-1236,14480,22.6,-459,959,-3044
15:26:08.964, 1504,-644,13960,22.6,-756,1734,-4840
15:26:09.036, 2540,-16,16484,22.65,-308,-2544,-3657
15:26:09.141, 1380,200,19144,22.6,-1576,-362,-3028
15:26:09.255, -324,1288,20592,22.6,655,3115,-464
15:26:09.361,  224,1708,16356,22.55,1084,982,2798
15:26:09.475, 1288,572,12644,22.65,-714,1301,4355
15:26:09.551,  924,-720,15156,22.6,221,2884,1953
15:26:09.661,-1416,-2056,20372,22.55,1498,2600,-3208
15:26:09.775,-2716,556,21992,22.51,673,-70,-3619
15:26:09.885,-2296,-124,17144,22.6,-274,449,-1852
15:26:09.995,-1208,-172,13572,22.55,817,-238,-1029
15:26:10.071,  968,708,12656,22.65,563,-1291,442
15:26:10.185, 1096,1460,17836,22.69,1123,-1525,1965
15:26:10.292, -780,3672,24488,22.69,3109,-1517,5775
15:26:10.399, -732,2240,17156,22.65,256,-3011,5429
15:26:10.510,  464,580,13440,22.6,835,-2768,5252
15:26:10.586, 2024,636,11452,22.69,-820,1557,4037
15:26:10.700,  888,364,15456,22.65,-3309,-2107,2222
15:26:10.803, -348,-316,22652,22.6,79,-270,-760
15:26:10.917, -316,-588,20460,22.6,2567,5214,-2147
15:26:10.993,  140,256,15560,22.65,-489,326,-3350
15:26:11.102, 1740,228,12696,22.65,275,-22,-2968
15:26:11.217, 1316,1020,16412,22.6,-326,-1452,-341
15:26:11.331, 1064,1568,19704,22.65,-1158,-1412,538
15:26:11.407,  128,1788,20404,22.65,351,776,1442
15:26:11.516,  712,2944,16096,22.69,-135,830,3138
15:26:11.626, 1100,1744,13724,22.69,-1223,1225,3343
15:26:11.740, 2196,464,14644,22.65,-1457,-1210,1385
15:26:11.854, 2364,180,19664,22.69,-1078,-2323,-282
15:26:11.930,  180,-788,22528,22.6,256,808,-2592
15:26:12.045, -592,-1768,16080,22.65,-343,602,-2254
15:26:12.159, -940,220,14316,22.74,708,1918,-3707
15:26:12.264, 1868,1048,12188,22.69,1783,-629,-4092
15:26:12.339, 3360,1844,16012,22.55,746,-113,-2680
15:26:12.447, 1956,2396,19976,22.65,755,-133,678
15:26:12.560, 1044,2640,21512,22.6,1611,-571,3065
15:26:12.672,  364,2832,17796,22.74,1179,1633,5390
15:26:12.747,  464,516,12992,22.65,-1098,1927,3935
15:26:12.861, 1748,-148,14112,22.6,-2154,-486,2384
15:26:12.968,   64,216,18876,22.74,-2987,970,844
15:26:13.077,-1516,-1032,20424,22.74,-960,-539,-2472
15:26:13.189,-1572,-2428,17556,22.79,-1715,1829,-4214
15:26:13.264, -608,0,14916,22.74,1127,2905,-3861
15:26:13.372, 2252,1444,12900,22.69,1888,1111,-2573
15:26:13.481, 1380,1428,16908,22.84,1817,-375,-838
15:26:13.591, -232,2560,20776,22.69,1860,-956,1162
15:26:13.697,-2712,3124,20572,22.79,285,701,3197
15:26:13.810,-1472,1964,17000,22.74,-1428,-172,5442
15:26:13.887,  556,612,11896,22.69,-1960,-172,4748
15:26:13.993, 1732,476,14092,22.79,-681,-2627,2486
15:26:14.107,  796,400,20268,22.74,-568,-553,-187
15:26:14.214,-1644,-636,22548,22.79,741,2066,-1908
15:26:14.289, -940,-1516,16496,22.79,-630,448,-2451
15:26:14.402,-1776,88,14832,22.74,1421,306,-4720
15:26:14.514, 1640,1236,12128,22.74,2314,-1892,-3739
15:26:14.627, 2560,2292,14984,22.79,-2698,-562,-1944
15:26:14.703, -120,2272,21636,22.84,-534,1237,1267
15:26:14.807,-1924,3176,21736,22.69,1583,3699,2358
15:26:14.917, -452,2628,16036,22.74,-304,-2211,2260
15:26:15.027,  700,308,12648,22.74,-1694,786,3163
15:26:15.136, 1168,292,13920,22.88,-3549,-1309,1599
15:26:15.250,   28,88,20152,22.74,-2275,-1818,-210
15:26:15.324, -604,-1176,22052,22.74,105,904,-1528
15:26:15.438, -344,-2236,17660,22.74,-163,1317,-3403
15:26:15.553, -432,-432,15452,22.69,1700,1587,-3836
15:26:15.663, 1876,432,13176,22.88,822,-3359,-2171
15:26:15.768, 1988,188,15936,22.84,42,-1820,-1107
15:26:15.843,  348,740,20664,22.84,1117,-712,-41
15:26:15.952, -128,1700,18704,22.79,940,1786,-9
15:26:16.059,  876,1988,15136,22.79,269,2085,1934
15:26:16.159, 1476,496,13056,22.79,-1698,1459,1497
15:26:16.274, 1324,68,15316,22.84,-2010,-1478,293
15:26:16.383,  -44,296,19720,22.88,-864,-580,-1187
15:26:16.491,-1360,-1244,21488,22.79,297,2328,-2422
15:26:16.563, -780,-1656,17020,22.93,72,1383,-3950
15:26:16.672, -480,-168,14600,22.79,523,1177,-4047
15:26:16.786, 1460,588,13868,22.88,1284,-860,-2284
15:26:16.893, 1504,840,16456,22.88,-23,-1414,-1052
15:26:16.968, 1196,1436,18844,22.88,1361,-2061,811
15:26:17.081, -840,2172,19608,22.84,1767,2004,3049
15:26:17.193,-1108,1564,17180,22.88,-624,1473,4443
15:26:17.306, 1060,-500,12500,22.84,-2106,-524,2946
15:26:17.382, 1312,-60,15276,22.88,-1516,-561,1764
15:26:17.488, -336,-132,20604,22.98,-2100,-1665,-638
15:26:17.602,  176,-3020,21036,22.93,-2605,-161,-3267
15:26:17.707,  372,-2232,16648,22.88,-211,1409,-4940
15:26:17.821, -388,508,14128,22.98,2629,3942,-3857
15:26:17.927,  812,740,13436,22.84,1075,-618,-2144
15:26:17.999, 1284,980,16628,22.93,1312,-2168,-1060
15:26:18.113, 2308,2176,19384,22.88,1638,-2257,771
15:26:18.222, -120,2404,19280,22.93,822,4184,2594
15:26:18.328,-1176,1744,16588,22.88,131,2348,4314
15:26:18.437,  632,144,13288,22.88,-825,-1968,1797
15:26:18.550, 1340,-24,15788,22.84,-821,-562,677
15:26:18.622,  212,1108,20228,22.98,-2348,1239,-1517
15:26:18.728,-2488,-348,21148,22.98,-1281,4312,-1896
15:26:18.847,-2088,-784,16752,22.93,62,703,-2360
15:26:18.946, -856,116,14128,22.98,1645,17,-3426
15:26:19.056,  960,948,14156,23.02,1523,-2449,-1692
15:26:19.165, 1472,1688,15936,22.98,-1391,-1934,-457
15:26:19.241,   -4,2972,19812,22.84,-875,-1180,2613
15:26:19.347,-1892,2440,19468,23.07,1579,5622,3704
15:26:19.457,-1596,732,16968,22.98,-1422,1278,4443
15:26:19.567,  192,-1076,12492,22.93,-3884,-1378,3758
15:26:19.677,  808,-1020,15036,22.98,-1334,-2144,1434
15:26:19.782,   48,-472,19768,22.93,-649,-974,-1402
15:26:19.854,-2132,-1700,22408,22.98,841,2396,-1341
15:26:19.968,-1164,-2160,16668,23.02,-1201,395,-3457
15:26:20.082,-1604,-1168,14348,22.98,2069,1256,-5080
15:26:20.196, 1216,784,12796,22.93,3088,-1197,-3673
15:26:20.268, 1688,1648,14640,22.98,1746,-1350,-304
15:26:20.378,  280,2736,19436,22.93,1697,1418,1585
15:26:20.483,-2748,3480,22352,23.07,2416,6117,3058
15:26:20.588,-2304,3044,16996,22.93,-470,134,4585
15:26:20.698, -540,1016,13628,22.98,-2887,-770,3890
15:26:20.812,   88,416,14240,23.02,-4103,-2060,2082
15:26:20.881, -868,-660,18880,22.98,-2109,-897,179
15:26:20.996,-1924,-1628,22140,23.02,-886,1090,-2555
15:26:21.096,-2248,-1776,16656,23.07,-989,499,-5243
15:26:21.211,-1268,-1024,15016,23.02,927,-1299,-5832
15:26:21.320, 1240,604,12624,22.98,2283,-777,-3716
15:26:21.430, 1776,972,15660,23.07,285,-2009,-1546
15:26:21.503,  868,1988,20228,23.07,1478,-1259,-12
15:26:21.613,-1064,2420,22520,23.07,2061,2116,2108
15:26:21.727,  172,1676,15728,22.93,-1384,-826,3469
15:26:21.841,  428,252,12756,22.98,-1899,557,3336
15:26:21.913, 1548,-700,13392,23.02,-2147,-939,1946
15:26:22.027, 1044,-656,19132,23.07,-1087,-635,-9
15:26:22.133, -168,-1064,21964,23.12,-546,-341,-2491
15:26:22.247, -636,-1812,17824,23.07,-597,1824,-4126
15:26:22.323, -120,-472,15496,23.02,1458,-360,-3297
15:26:22.429, 1880,640,12552,23.07,1409,-898,-1602
15:26:22.538, 2028,1152,15528,23.02,1308,-1472,-956
15:26:22.648, 1432,1460,20640,23.07,2248,-1587,292
15:26:22.758, -436,2468,23228,23.12,2141,1577,2216
15:26:22.869,  764,1876,15160,23.07,-1113,-469,3576
15:26:22.942,  984,320,11968,23.02,-1715,2386,2597
15:26:23.051, 2024,-600,13400,23.07,-2205,-1518,747
15:26:23.156, 2416,-364,18852,23.07,-2042,-1165,-1487
15:26:23.266, 1808,-1264,21220,23.12,-431,-704,-3245
15:26:23.376, -436,-2140,18432,23.07,192,3619,-5576
15:26:23.480, -752,-104,16652,23.12,1587,74,-5426
15:26:23.594, 2160,1376,12468,23.02,683,-2738,-2768
15:26:23.670, 3072,1328,14728,23.07,-1134,-2173,-1635
15:26:23.784, 2600,1532,19640,23.21,2034,591,170
15:26:23.894, -552,3236,23380,23.07,2224,4661,2167
15:26:24.004, -100,2176,16544,23.17,-54,-890,3717
15:26:24.109, 1152,528,13592,23.02,-541,894,3500
15:26:24.186, 1744,-116,15956,23.02,-1846,-1362,1723
15:26:24.300, 2540,528,18392,23.17,-730,-3314,-622
15:26:24.414, 3708,428,19600,23.12,-1094,-2838,-1977
15:26:24.515,  384,-1132,17800,22.98,465,5062,-4482
15:26:24.625,  -64,-992,15136,23.17,1272,947,-5417
15:26:24.701, 1732,1476,13352,23.12,2415,-991,-5117
15:26:24.815, 2320,2620,14368,23.07,545,330,-2099
15:26:24.921, 1280,1564,18908,23.07,242,1496,340
15:26:25.035, 1244,3572,23564,23.12,1510,2434,1717
15:26:25.111,  528,2584,17324,23.07,1558,305,1752
15:26:25.220,  188,688,14724,23.07,-2542,-1601,1603
15:26:25.330, 1668,1292,13112,23.17,-2221,57,1559
15:26:25.438, 2268,-468,16660,23.07,-2602,-364,1212
15:26:25.548, 2252,-208,19260,23.12,-3149,38,-4196
15:26:25.653,-2412,-752,20592,23.17,922,4444,-6815
15:26:25.759,-1232,-1184,17244,23.21,560,-3067,-7415
15:26:25.831,  652,168,14020,23.07,2573,-1589,-5319
15:26:25.935, 2632,1936,13984,23.12,389,-1119,-2708
15:26:26.049, 3208,556,17736,23.17,608,-366,-2757
15:26:26.164, 1604,2776,20892,23.26,987,-267,-901
15:26:26.240, -440,2556,17608,23.12,-739,-614,-672
15:26:26.350,  100,1020,15276,23.17,-1110,1201,1559
15:26:26.460, 1520,108,14172,23.12,-4451,3417,-766
15:26:26.566, 1336,388,15360,23.17,-2278,3002,-2227
15:26:26.672,  280,388,18380,23.21,299,-959,-3717
15:26:26.786,  -32,-376,19660,23.07,1622,-1119,-4167
15:26:26.862, -876,-656,18796,23.12,-1186,2832,-5979
15:26:26.976,-1744,-308,15760,23.17,515,867,-5301
15:26:27.079,-1384,-92,15428,23.17,2439,1473,-2808
15:26:27.189,  648,216,15608,23.17,-735,1953,-4777
15:26:27.295, -952,388,18196,23.17,-1571,903,-1907
15:26:27.400, -428,600,19092,23.21,2388,-1329,-1505
15:26:27.511,-3940,728,17952,23.26,467,422,-1817
15:26:27.583,-2400,712,16048,23.21,-1038,-1171,-1359
15:26:27.696,-1188,1292,16504,23.17,342,2043,-2520
15:26:27.810, -576,460,16196,23.17,-522,662,-4584
15:26:27.924,-1308,1192,17872,23.12,1821,57,-5334
15:26:27.998, -164,872,18280,23.26,-1455,-2203,-6257
15:26:28.108, -644,1348,17196,23.21,340,-1122,-7132
15:26:28.218,-2912,1008,17364,23.17,1181,541,-2815
15:26:28.325,-3092,-104,14660,23.21,705,-1048,-3709
15:26:28.439, -828,-324,17020,23.17,1720,-50,-3664
15:26:28.514,  -64,308,16296,23.12,-1424,2112,-3222
15:26:28.619,-1228,148,16852,23.17,-405,1265,-2861
15:26:28.733,-1484,892,17432,23.21,-77,497,-1323
15:26:28.834, -708,900,17852,23.17,859,91,-692
15:26:28.940,-2204,1444,17176,23.07,-17,-1190,603
15:26:29.045,-2760,1492,16240,23.17,-885,605,164
15:26:29.154, -624,2136,16964,23.21,-52,964,-605
15:26:29.230,-2240,1784,16964,23.07,251,362,-1234
15:26:29.344,-1660,1776,17064,23.12,734,-15,-2545
15:26:29.454,-2472,2152,17292,23.07,824,1175,-2281
15:26:29.561,-2580,1316,16548,23.21,110,634,-770
15:26:29.675,-2312,712,16724,23.07,778,-452,148
