aX,aY,aZ,temperature,gX,gY,gZ
3108,3924,16592,16.62,-2211,5224,-328
-452,4004,18744,16.53,-1061,3740,1901
-320,3264,16176,16.48,-2716,999,-506
848,3736,18188,16.58,58,-43,-308
1740,1620,18084,16.53,-2631,422,-4490
844,2956,15580,16.48,632,61,-1728
-436,2516,18592,16.53,897,1779,-2115
1228,3332,15808,16.53,-2422,1251,-1805
868,2672,17684,16.48,-1746,-320,-1754
-572,3408,16308,16.48,-1381,407,-12
-1640,3200,18432,16.53,-1038,736,203
-1404,2108,17896,16.48,2592,1537,1789
1428,3496,14228,16.48,1358,1797,1033
-2704,916,17080,16.44,2708,1952,5363
1232,2552,14912,16.44,-2388,-617,3576
-568,2208,17004,16.48,1825,-2934,3494
-1752,3120,17000,16.44,-559,-1193,309
1004,1992,17004,16.48,139,-125,-2452
960,2312,18452,16.48,-123,69,-2942
268,1800,12832,16.44,-628,159,-1933
-1272,2372,14816,16.39,210,1329,-1095
612,2892,13948,16.48,-962,135,466
452,3648,18504,16.53,711,80,523
2292,3316,20372,16.39,-2596,1217,-279
-2740,1512,15608,16.44,701,-128,2866
-3236,1184,16540,16.29,-1933,1291,-1657
-904,2072,13444,16.44,1243,166,-703
-208,3044,11124,16.29,-969,-1290,-1181
3288,1752,18072,16.34,977,-2089,-3145
820,1468,18964,16.39,-697,-1262,-3245
420,1024,16676,16.34,-2149,-300,-2865
-1052,2044,14148,16.48,2372,-750,-735
-32,3212,18036,16.48,1772,2337,-1533
-1492,2252,18412,16.44,2807,2514,-499
-464,216,20420,16.29,994,-56,241
1312,616,18056,16.34,-3950,2216,-1153
1056,2156,14352,16.34,1003,-1597,493
1432,2264,15092,16.39,2115,-1411,-199
1164,1816,23716,16.34,2164,-1329,-1208
456,-88,20428,16.39,1363,1713,-3204
2144,1768,17464,16.34,-2064,87,-1003
-1996,1308,12600,16.29,371,-820,-463
-208,2020,17196,16.39,-137,501,-1311
-1308,1016,23084,16.29,1094,-564,781
-1484,-632,24128,16.39,1074,736,-435
96,668,19124,16.34,-3388,-50,673
896,1736,15404,16.29,349,-1072,527
-2568,1356,17628,16.34,2579,-602,-391
3388,1808,21380,16.29,733,-351,-2564
848,1396,20128,16.34,814,1931,-2456
1664,1280,15920,16.29,-3096,853,-1686
-1156,1576,12704,16.29,748,-370,233
2348,3500,19124,16.29,1574,-135,-619
-476,2548,21640,16.25,3030,2180,1525
1192,1036,23980,16.39,1220,-1002,1834
-1244,-952,17924,16.2,-6851,-99,171
264,1532,16396,16.34,-1195,-2532,434
636,3012,16544,16.29,-1772,-178,-1816
964,2412,21312,16.15,-40,-186,-2392
-792,556,20356,16.29,-645,1606,-3131
3468,1960,14992,16.29,-1460,-772,-1031
-1648,1672,13124,16.25,53,-585,-2
936,3220,17724,16.29,-293,-262,135
-1140,1872,22904,16.25,1007,-353,127
-448,612,24844,16.2,-1577,179,1601
1396,1092,16148,16.25,-2442,-1074,2773
-1076,1044,16656,16.15,-2620,-1097,772
-152,2084,16276,16.29,-354,-506,-416
-548,1148,20388,16.25,-475,-1462,-1569
-356,240,22368,16.2,-1419,189,-3500
3004,808,17112,16.25,-893,-2202,-592
-2016,1756,12352,16.25,-97,1628,-1072
480,2484,15276,16.2,-5,-835,-921
504,2416,21736,16.29,577,620,-887
1020,1220,22236,16.2,-2561,1211,-476
420,836,15048,16.25,-1596,-1011,1460
-696,1744,13216,16.29,546,300,11
1620,2980,13144,16.29,48,-776,42
1508,2148,17912,16.25,666,-709,-2402
1168,664,20576,16.29,-2898,-466,-3491
-780,732,17776,16.15,-601,1112,-10
-2596,1456,16784,16.2,197,1462,-657
-1216,2116,13644,16.25,366,715,603
828,3168,17280,16.11,1082,183,1276
1248,1840,17484,16.25,1069,897,1354
-4184,1328,14124,16.2,-1464,148,2401
-1760,776,17396,16.15,-1437,779,957
2048,2616,12544,16.2,419,-195,634
532,2376,17468,16.15,1553,226,-1641
1028,144,18568,16.2,989,651,-4405
-2900,1124,17172,16.2,899,-371,-1689
-1732,1812,16864,16.25,947,997,-1100
1076,3016,12448,16.2,1327,-162,636
-108,3212,16280,16.06,879,1007,1123
1972,2460,15832,16.11,-891,2252,608
-2424,956,15620,16.15,1125,1145,-265
856,1556,19248,16.2,-1346,457,613
492,1836,13796,16.15,1069,242,-14
1472,2328,15172,16.29,1337,-369,404
1844,784,19184,16.2,19,129,-1845
-2392,792,19004,16.2,-2157,-573,275
1236,1524,17816,16.29,-571,694,-133
708,2348,14664,16.25,1139,-1077,903
-8,3136,18796,16.2,2321,2324,240
424,1892,17036,16.25,1372,1830,1443
-1124,916,17648,16.2,-366,96,1664
-2020,1424,18148,16.15,-1161,-240,1562
-700,1668,14300,16.2,875,-678,1044
1284,2628,17016,16.15,1461,313,-2127
3308,1796,16648,16.15,687,534,-3917
252,2820,17992,16.2,-527,-391,-1159
624,1500,17660,16.15,-2005,-412,-38
840,2104,16836,16.2,2973,-1847,-582
-736,3064,18724,16.15,1796,856,-85
536,2664,19828,16.2,-55,748,2591
-32,1516,16180,16.15,-151,1091,844
1132,2072,16952,16.2,204,2403,1251
3164,1692,14268,16.15,1649,1115,1017
-152,2056,18872,16.15,-417,193,77
3948,1468,19932,16.2,2705,203,-1291
-1352,1452,19580,16.25,88,-434,-694
1528,1252,20028,16.2,-3221,446,-313
256,1416,16064,16.15,-1157,-55,-112
1516,2988,18532,16.2,-1042,793,-209
-592,2248,19664,16.15,2263,1062,695
-3264,-1348,27576,16.2,-1805,-1038,625
2016,832,17672,16.25,-1987,-1655,1514
-68,720,15516,16.15,-710,141,653
-1048,1704,19124,16.2,-1325,-771,-908
196,1172,23408,16.15,-873,-166,-2153
-236,376,20316,16.2,1472,-1879,-1242
1880,1168,14732,16.15,-1051,-1363,263
496,1564,13764,16.2,238,-498,-892
652,2588,15952,16.06,-1259,-635,-883
1040,1968,20700,16.2,240,-689,1041
-900,420,21192,16.06,-2303,1176,-942
-1284,972,18972,16.11,-3336,-411,2297
-1048,908,17204,16.2,-1000,-1326,184
-524,1988,15548,16.15,-432,-1039,-698
-1824,1256,20568,16.2,450,-1572,-1810
-2748,8,24388,16.15,-2131,1734,-5585
2104,1664,14252,16.2,-339,236,-1006
640,2484,14604,16.15,400,-1224,-194
1880,3052,15708,16.2,-976,-852,-259
1888,2836,20372,16.15,1055,-825,-891
1452,2868,20000,16.15,-657,-317,1261
-260,696,14644,16.11,-849,-22,572
1032,2324,15720,16.2,11,253,685
2528,2420,12644,16.2,390,568,126
964,2560,15592,16.15,175,594,-1193
2272,1976,19028,16.2,-140,1763,-2850
-1228,1368,17080,16.15,21,1130,-1329
1292,2388,15700,16.15,-733,593,-333
328,2628,12200,16.25,1137,255,1080
780,4032,17504,16.11,1621,1164,666
-472,1716,19376,16.15,1776,175,260
580,1100,17788,16.11,2204,2255,1405
908,2232,16528,16.25,-1221,783,-1655
456,2444,13220,16.11,879,402,2765
1664,3584,16184,16.15,1762,-483,380
276,2048,24312,16.11,1925,-318,-409
392,2296,18932,16.15,837,1021,-2758
176,1856,14636,16.2,-875,-312,-686
-588,1932,14528,16.15,-375,-463,-25
-364,3608,19700,16.11,-366,-492,-505
312,1960,22444,16.15,1478,-21,1438
456,1028,22128,16.2,963,-572,1776
784,1400,16856,16.11,-2976,331,-530
1632,2612,16280,16.15,-116,-2354,559
-624,3408,15400,16.11,1640,-494,201
-76,2804,20660,16.25,1330,-1193,-1017
1604,2240,19440,16.2,-790,-547,-2856
2120,2688,14844,16.15,-1285,-847,-1089
-312,2788,13816,16.11,1757,1063,-1074
612,3780,16224,16.25,1066,259,-1199
2852,3208,19196,16.2,-227,-233,898
48,2408,18180,16.11,-2418,629,520
348,2632,15832,16.29,-594,410,1852
-2456,1140,16108,16.06,-1577,467,-213
828,2984,16420,16.11,145,426,-1098
1400,3716,16840,16.06,2143,0,-897
1200,3332,17164,16.11,-311,-1173,-638
-1368,2440,17236,16.15,85,839,-1235
1160,3184,17912,16.15,-1493,-104,-411
-2412,2184,17580,16.11,-305,-444,2186
-1480,4020,18992,16.25,190,940,842
-596,2308,17820,16.11,1728,457,1318
-2836,1456,22180,16.2,-1805,462,1042
1724,2148,15192,16.11,-2096,-716,1240
-892,2236,14844,16.15,-1484,-507,411
-1596,2708,18328,16.2,701,-237,-1490
-736,3320,21568,16.15,-393,-698,-1075
-64,2896,21272,16.11,-985,-1219,-3702
904,2984,12920,16.15,-555,-515,-155
-2388,2528,13460,16.11,138,249,-2587
1840,4448,14592,16.15,1094,1323,-3
-268,2776,19612,16.2,1968,207,968
-356,3952,19636,16.15,-263,-260,1681
-2408,2676,18108,16.2,-1168,1675,1706
1304,2640,13504,16.15,1181,2940,828
2124,3676,14984,16.11,821,-382,230
-572,3572,16832,16.06,1690,-670,-1173
-464,2724,18396,16.11,-2925,949,-3791
428,3124,19664,16.15,408,44,-270
1544,2680,21356,16.11,-2334,-1196,-1427
-1972,2536,16240,16.01,201,-382,-997
-552,4884,17900,16.2,1526,-182,1233
784,4000,16328,16.15,-435,1629,1369
-244,3952,16188,16.06,-565,1777,2036
-184,3404,19304,16.15,-1061,1305,988
-136,2716,16132,16.01,2809,-1655,3221
2564,3916,14344,16.11,1380,-1960,204
1600,3412,20592,16.01,2255,-737,-1110
-3772,1712,21192,16.11,-2807,-1323,-3298
-1580,1952,16080,16.15,-2762,-908,-1514
-1852,2932,15728,16.11,139,169,-1938
-2040,5176,18300,16.15,2002,1028,225
-960,4064,20536,16.2,2958,3481,2425
-536,2936,23188,16.06,681,853,2909
776,2560,17628,16.2,-2587,-1095,2349
-2092,2680,14548,16.06,843,-3206,2101
1860,3684,18892,16.2,472,-1856,-971
448,2744,23788,16.06,-1042,-373,-2138
-1828,3052,18852,16.11,-2145,-1026,-2862
2332,3096,13668,16.11,-2042,-751,-1013
-628,2236,16964,16.15,-344,74,-996
-168,3676,18848,16.11,-1256,2417,-2160
-1492,3140,21408,16.11,-86,-104,-131
-5472,1656,24460,16.11,-2579,-2081,2425
-184,2180,20240,16.06,-1127,-3331,2214
-2080,2296,12936,16.11,-935,1755,-851
1632,4440,15688,16.2,1096,359,1105
-1220,2808,21404,16.06,965,-189,-2631
-280,2112,20200,16.11,-4740,-1196,-2460
6868,3344,13660,16.15,-1171,1167,-577
3684,3720,13992,16.2,2630,1630,-810
1896,3796,13484,16.15,1596,812,-1369
2836,3736,18192,16.15,2292,1752,-646
-2848,3240,16900,16.11,-2648,814,-743
1128,3492,15120,16.06,439,518,2330
-1676,2464,19076,16.11,-656,-86,1638
-876,3372,16880,16.2,88,-2302,1301
-292,3556,14488,16.11,981,-844,-2972
4036,4980,14572,16.15,2525,596,-2613
1472,3652,14812,16.11,-487,-906,-2463
2632,4152,15060,16.06,-3005,683,-202
192,4168,15204,16.2,543,1015,1185
800,4588,20268,16.25,534,3567,123
928,5456,17712,16.01,-260,1911,1404
-1336,4284,22644,16.15,1230,-1172,2924
2240,3568,17368,16.11,-212,4051,3753
1352,3844,15784,16.2,2584,-2624,2435
-2520,4888,18704,16.2,69,-3081,1140
968,3948,19492,16.11,728,-3070,-2675
172,3564,16560,16.15,-319,737,-1990
3000,3636,13748,16.11,-3041,124,-1091
-1388,3472,12792,16.15,-331,459,302
-896,4584,15232,16.2,-2509,-1370,-162
1436,4088,20784,16.06,-1029,786,-255
-2588,1716,24928,16.11,-3647,1965,-465
-1160,2056,17032,16.11,-4016,-622,1881
-1000,2560,13232,16.11,-122,-138,2388
764,3816,13724,16.25,1154,503,2046
-2648,1772,21900,16.2,-664,-2045,-1023
-776,3440,21388,16.11,-2064,293,-4020
1480,2736,14576,16.25,2415,1108,179
916,3004,17820,16.01,2539,-47,-285
500,3476,16132,16.15,2262,726,645
824,4532,18284,16.15,2194,-816,436
-1536,4340,17140,16.01,-1712,2216,-1219
1512,4424,13220,16.15,1058,423,3011
460,3012,13880,16.2,221,540,1412
4944,4040,14884,16.06,-1181,-118,1360
2744,3964,17104,16.11,38,-125,-4018
1264,2956,17964,16.2,-1563,1368,-4317
360,2416,20300,16.15,3293,1123,543
-1268,3044,20188,16.11,-869,130,-844
-1344,3604,16336,16.15,387,138,791
-992,5208,18400,16.2,1021,453,1737
-1120,4440,18616,16.15,1782,1749,788
-4228,3088,23592,16.06,255,283,2507
-872,2348,18532,16.2,-4224,87,778
-768,3344,10476,16.15,-1878,150,213
2156,5660,15248,16.11,-841,-748,202
108,4272,18612,16.15,121,-546,-1085
64,3664,19800,16.11,-3200,-2512,-2602
1528,4720,15376,16.15,-969,-321,-1075
-4164,2156,19084,16.11,2737,-2204,-896
-1216,4664,16888,16.15,-688,-1033,785
760,4172,18692,16.11,1695,-42,-2881
-2076,3808,19916,16.11,-2537,1962,-17
1212,4848,15408,16.15,-1328,931,2751
260,4064,13556,16.11,1037,2932,71
3612,5064,15628,16.15,1901,-206,-232
-1732,3668,20152,16.11,1616,308,-2015
136,3340,22720,16.15,-1171,-3228,-2339
1768,4864,11732,16.2,-988,1475,-3741
2700,4644,14372,16.15,-1003,401,-1938
1736,5612,13840,16.11,761,1603,-1023
-596,5000,18980,16.11,786,1608,1092
-3088,3488,22540,16.2,-1884,1786,-242
-116,3896,15800,16.11,-1363,-9,1507
204,3168,11692,16.2,-2021,1313,513
3572,4716,14316,16.25,-1089,-1332,13
-592,3464,18172,16.11,925,-476,-1222
-2132,2568,20580,16.11,-2459,545,-3872
3052,3104,16544,16.15,42,1318,-1125
-2412,3648,18592,16.2,1135,916,-685
-3776,4088,15732,16.15,-168,1404,817
3092,4920,18044,16.11,4441,922,3261
848,5424,17148,16.15,-957,5606,1050
-2648,3436,17640,16.29,1228,2052,2340
-1856,3028,17448,16.06,-636,-2970,2048
-1336,3480,15064,16.11,1233,-2497,821
-872,3896,17604,16.15,3161,-2301,-2254
136,5044,18680,16.11,5095,-1119,-2440
-2032,2888,21668,16.06,92,562,-2351
-1068,4156,18916,16.01,-3122,682,-2659
-984,4828,12432,16.2,1133,-4942,379
780,6504,20952,16.06,397,1621,520
-2184,4984,20416,16.11,663,3182,908
-2216,4532,19864,16.15,17,160,2664
-616,3152,18784,16.2,252,1775,669
-3064,3268,15444,16.25,-987,-2143,1919
-1844,4448,18676,16.15,818,56,347
-1004,4576,19052,16.11,101,-2340,-920
-996,3168,19524,16.2,-2825,1342,-2949
900,3564,15064,16.11,-44,191,-1044
1172,4788,14788,16.29,807,719,-1232
604,4548,14308,16.15,698,1192,-202
-936,4320,19776,16.01,1262,252,1427
-2012,2532,22896,16.06,-2045,-788,175
236,5012,17984,16.2,-1457,-765,3940
-2552,2576,14064,16.15,2534,2411,1878
2356,4564,13808,16.11,2265,-371,1002
-720,4452,17748,16.15,1758,-1460,-270
-1400,3328,20992,16.2,-2585,1438,-4511
1576,3620,13188,16.06,3506,894,-27
732,4732,18308,16.15,1467,270,-1051
-656,4580,17776,16.11,1951,-159,673
524,5380,16448,16.06,1599,473,-193
-872,4220,20456,16.11,-3242,1015,-16
-728,5708,16644,16.15,-775,375,3198
-2248,2868,16488,16.2,904,-1216,1592
-992,4100,16920,16.11,-546,-2792,3272
2412,4416,17300,16.25,-303,1241,-1847
868,4824,19492,16.11,2309,351,-2053
-5028,2784,21992,16.15,-1025,-2908,-3474
-1916,3532,17232,16.15,-3973,850,-5554
-3964,4404,15132,16.11,-1610,768,-427
-4184,5784,17436,16.15,1654,140,1434
-3228,5144,17504,16.11,1219,1597,2638
-3976,4204,22400,16.15,-2273,1621,1591
-2120,2632,18880,16.11,-1179,-17,1300
-592,3196,10904,16.15,-281,-705,3095
-1404,4816,16900,16.11,785,-1030,663
-1224,4564,19324,16.15,350,-2048,-1838
692,3972,17756,16.2,-1674,60,-4071
2952,4656,14044,16.15,1960,-960,-1593
-568,4124,14140,16.11,828,1203,-1108
32,5620,11840,16.15,1062,2369,-474
260,5268,19052,16.11,2720,771,2549
-608,5872,17276,16.15,976,811,2884
-3192,4072,16872,16.2,-273,-288,2788
-2512,3300,16832,16.15,659,3113,102
364,3968,16644,16.06,21,-3683,3556
712,5576,18044,16.2,729,-710,-1079
1384,5180,19544,16.15,541,-496,-1070
-3372,3728,17636,16.11,-3762,-863,-5164
944,4956,10132,16.15,-5449,-1574,-3709
-3344,3376,9684,16.2,-451,307,-3111
-1392,5700,14292,16.06,-531,1224,200
-2484,4748,19736,16.2,2619,2212,823
-3736,3920,19224,16.06,-2466,614,2335
416,3460,16688,16.11,-2933,1460,1732
-88,2932,13632,16.06,-1441,-1653,1387
-732,4440,15308,16.11,540,-292,-1046
-244,4840,18028,16.06,-141,-2429,-1733
-796,3164,19928,16.11,-131,-1193,-3736
3492,4724,10592,16.15,3049,393,-923
-868,4232,18760,16.11,1629,1325,-1176
-360,4580,14848,16.15,-85,1666,201
1884,5780,16740,16.2,1670,-24,2457
-2132,3764,20744,16.15,-3893,958,-170
-3892,4172,17284,16.11,1675,34,2890
-3772,2580,17476,16.06,-2436,1366,-176
-720,3732,14540,16.11,-392,-1840,2440
712,4644,15748,16.15,418,313,-1201
2404,4384,18696,16.11,712,605,-2322
-3220,2208,22344,16.15,-4306,-651,-3049
-1572,2596,15216,16.11,-3735,261,-5006
-520,4188,12736,16.15,901,538,-1673
-392,4984,16876,16.11,931,723,381
-1040,4472,18488,16.15,1055,1130,-142
-548,3384,20036,16.29,-3620,839,-1344
528,3824,16764,16.2,-790,16,1748
-324,2956,13052,16.25,1553,489,2493
3632,4120,13108,16.11,747,-1982,2455
200,3540,18728,16.15,-1193,-720,-3763
1420,4016,21944,16.11,-1541,1010,-5237
1440,3508,16640,16.11,4180,-746,572
-3928,3080,21932,16.15,-967,878,-1619
-3280,4164,12400,16.2,-1353,1716,-418
-632,5252,23056,16.11,1898,1489,3206
-1352,5616,20420,16.11,1110,1421,1857
-4160,3040,20716,16.15,632,-879,1210
-4436,932,20636,16.2,-2887,-2820,1964
156,3168,12564,16.15,-315,-1068,764
836,4676,15696,16.11,1493,-298,-912
364,4680,19440,16.15,1188,280,-1355
-2664,3188,24420,16.2,-4077,-1407,-1810
3268,4252,9104,16.06,-559,561,-2327
-160,4820,12140,16.11,2338,1955,-1522
-428,5912,14804,16.15,1568,-275,1009
-3220,5300,19280,16.2,2255,1510,577
-2156,5476,18104,16.11,-3173,919,1986
8,4492,16748,16.25,402,325,2893
-676,3776,15720,16.11,-1804,1467,703
-384,5152,15512,16.06,445,337,2041
1340,5040,15716,16.15,2252,-1617,-621
600,4924,18660,16.2,-1318,-2016,-3421
-3476,2532,20796,16.11,178,-149,-1481
-2512,3552,20316,16.11,-3255,322,-4598
-2564,4176,13756,16.11,-738,-205,-840
-3236,6028,16068,16.2,198,-165,435
-3544,4824,20088,16.2,1342,-48,252
-3204,3600,23944,16.2,272,-281,2102
756,3120,15788,16.06,-4681,3560,281
964,3420,13100,16.11,-2586,493,1139
-744,2728,13556,16.15,4593,-1722,110
-2252,3140,21304,16.06,875,-2080,-164
-2576,1748,22844,16.2,-3388,509,-5001
-1324,2232,14000,16.06,-2685,-728,-2974
-4880,2528,12304,16.15,1951,247,-2153
-220,5820,16432,16.11,1429,1133,800
-4104,3876,17512,16.25,1928,2567,1363
-5188,1660,21932,16.2,-5554,4862,2108
-1352,2796,16220,16.2,-2832,162,1521
-3604,2064,13784,16.15,2527,-1972,1559
-852,2920,16672,16.2,-773,-5411,403
56,4272,18260,16.15,2424,-889,-1830
-2628,2600,20732,16.15,-3029,3473,-6402
4284,4348,11688,16.11,-1225,2295,-2024
-1392,4612,12268,16.11,4796,442,115
-2912,5100,17252,16.15,1026,-237,1448
-1080,4352,21360,16.2,2758,2614,2835
-1028,4996,16536,16.11,-1105,-235,1735
-696,3824,14540,16.15,-1018,-998,992
-48,3744,13128,16.11,-1966,1172,196
-1084,4552,14560,16.25,2397,-359,3760
1896,4284,17460,16.06,-3027,514,-1649
3432,5264,19848,16.2,-3411,-122,-3606
-8652,1140,24836,16.11,-605,-1853,-2957
-2628,2872,16356,16.15,-7126,1838,-7910
-1780,4656,11496,16.11,677,622,-436
-6960,4644,15124,16.15,3389,-939,8584
372,5976,22300,16.15,2374,3305,3189
-716,4760,21456,16.11,-1602,-1560,-1319
-1680,2772,16136,16.15,-3851,-2900,910
-2124,3096,14516,16.11,-146,1155,3333
1024,4908,12192,16.2,188,1,1013
-1976,4176,19804,16.25,-594,-2107,-1500
-4552,2544,25440,16.11,-1115,725,-5277
2180,4156,11812,16.06,-1524,1732,-452
-1256,4096,12884,16.15,3186,-462,266
-1844,4620,15752,16.2,1201,609,266
536,5224,19524,16.15,2793,926,2050
-3368,3952,20820,16.2,-1243,1733,-485
1284,4836,19156,16.15,-536,-1362,4680
-2684,2772,14696,16.11,-1755,504,1710
-1132,4280,16564,16.15,-1650,-2666,2493
220,4772,16536,16.15,1119,-773,-1410
3136,5032,20860,16.01,2591,-736,610
-2632,3360,18196,16.06,454,371,-3118
-1284,3416,15268,16.2,-4239,245,-4551
1220,5116,11192,16.25,696,1506,832
-484,5360,12600,16.2,308,51,-26
-1152,4868,18632,16.15,329,-407,1111
-3632,2448,25376,16.2,-2611,-196,-932
960,2892,20384,16.29,-1052,-990,1791
-1196,2196,13744,16.15,-516,-2167,1681
24,3456,18508,16.11,-47,-1982,753
-736,3068,18200,16.15,1074,-462,-830
1128,3784,23176,16.11,-2824,1116,-2436
128,2364,17192,16.11,78,-403,-494
396,3792,14088,16.06,183,567,-617
2580,4192,13948,16.11,-444,461,-150
1204,4060,17836,16.25,934,1004,782
2972,3932,21908,16.15,-1797,2422,33
-2356,2752,16432,16.2,1379,-623,2325
-1788,1572,15080,16.15,-983,911,-1582
1540,3452,12124,16.11,456,-296,568
980,3416,16144,16.15,476,247,-840
2908,3048,18216,16.2,930,1657,-3486
-2688,1380,20252,16.2,-958,-1605,-3563
532,868,18924,16.25,-1890,185,-2536
-2116,1328,15328,16.2,-624,-537,-1201
-2268,3012,19048,16.15,697,-410,-2075
-1200,2452,20340,16.15,876,1193,828
-2728,104,22216,16.2,154,-1041,-341
2764,2428,19164,16.15,-417,-970,-414
-2364,1332,11168,16.11,2123,-496,-906
728,4080,11612,16.15,640,-670,-2918
1416,3932,15280,16.2,-117,-1042,-3161
1860,1664,25196,16.25,-4737,1407,-4347
236,2384,14556,16.15,2467,-1437,245
-1196,2708,18880,16.15,793,1426,-2512
1336,4336,14368,16.11,1266,533,-370
-652,4796,15776,16.15,464,2030,-472
1776,4596,16360,16.2,1284,2638,477
-5540,1492,22696,16.25,2276,50,3023
1464,3516,15764,16.11,-1713,1045,994
-368,2472,12832,16.25,4580,-3666,1702
1468,3608,18396,16.15,304,-1745,-760
3044,3348,20604,16.2,2572,274,-2165
-1052,2304,20708,16.15,1937,-1582,-721
2756,3716,17600,16.25,-2773,2308,-1589
1396,3284,14664,16.11,-560,-379,1912
-384,4800,21568,16.25,522,2195,-494
-124,5032,18468,16.15,2148,4449,1835
-3528,2776,24296,16.29,-35,-344,3073
20,2980,17448,16.15,-1739,1065,892
-472,3404,15016,16.2,3470,-2069,1992
1224,4960,17788,16.25,1248,338,-1990
-84,5052,21348,16.2,665,-2008,-1389
-420,3240,18864,16.25,-3028,306,-5018
2364,3616,13148,16.2,-1126,-222,-3000
324,4304,13300,16.2,1875,1024,-3363
68,5940,15192,16.25,-215,562,-2128
880,5588,16048,16.11,3618,191,1582
-940,5168,17984,16.25,-2361,458,392
-2240,3100,18128,16.2,-824,459,2666
-764,3140,16380,16.2,-914,-122,1491
992,4468,17748,16.15,3490,2033,-3494
-1244,5176,21684,16.2,1852,-1113,-4281
-1132,4964,21504,16.2,-1871,-1223,-2531
2636,4564,16112,16.2,880,-263,24
240,4772,18980,16.25,1440,907,-1500
-4560,4736,13776,16.15,-94,328,-3002
-3696,5336,19868,16.2,-1162,1462,1524
-5656,4808,19132,16.15,-5318,1338,-1180
-2988,2972,15508,16.34,727,481,1977
-1180,2628,17116,16.25,-378,393,-2683
-2560,3968,16128,16.29,917,2236,-249
-1608,5408,15328,16.2,-1392,-2964,430
-1628,4948,20648,16.25,-1855,-2477,-1969
424,3040,17184,16.25,3402,567,537
-420,3216,19416,16.29,-3439,-1183,-2349
-3224,3676,20392,16.2,1085,-329,762
-388,4736,17316,16.25,2860,-151,667
1720,6204,16112,16.2,-2001,1176,96
-296,3904,18404,16.25,1633,1112,4452
-1436,3040,16604,16.25,525,211,1884
1160,4032,15864,16.2,2312,-2279,3025
2244,3976,17120,16.2,3240,-683,-3530
3264,5520,17992,16.25,-45,-361,-5322
-1560,3096,17588,16.2,-111,1080,916
60,3744,16700,16.2,-610,407,1181
-1952,4000,13360,16.2,1294,125,253
-2248,5712,16440,16.25,1333,591,-412
-720,5812,21616,16.25,2182,3983,2530
-3288,3868,21616,16.25,696,609,2654
-568,2796,17252,16.29,-2887,684,1780
-580,3376,13860,16.2,-2001,-1385,2595
-408,5068,16848,16.2,872,-742,-604
-2588,4116,16692,16.34,-941,-1204,-1630
3124,4636,19568,16.25,-1541,-1914,-2338
3380,5164,15204,16.25,1549,-82,580
-776,3244,16732,16.2,-229,-197,433
2576,4992,17548,16.11,-781,-312,1523
820,4812,20888,16.25,1642,1430,-1235
1972,5868,15420,16.25,613,2221,1624
-1256,3812,16228,16.29,2266,1036,2233
-984,3536,18240,16.29,-629,534,1105
-1316,3780,13888,16.25,565,-2636,2862
3452,5500,14640,16.25,1138,857,-916
-224,5168,21640,16.2,-308,192,-980
-3768,2944,19588,16.29,-1770,-2592,-3955
-1292,1920,18436,16.29,-5574,-209,-3487
-1320,3008,15336,16.25,669,-2790,-1435
-912,4860,18080,16.15,1548,57,-652
-1768,4052,20564,16.2,2125,1237,56
-2028,3288,21572,16.2,39,2495,1043
1860,3220,14404,16.34,-2165,-316,957
648,3316,12744,16.29,-263,-1109,323
3984,5144,11640,16.39,829,2100,-1685
-1904,4016,19600,16.25,-650,-1998,-771
-2676,2104,24392,16.25,-2619,-970,-3077
3024,3452,18100,16.2,-1552,-34,-791
-1188,4356,12084,16.29,2043,1771,-1964
2644,5036,14148,16.25,1099,202,393
-272,4580,18568,16.25,1450,-72,877
272,4280,20428,16.2,-4302,1668,-1063
-576,3392,13232,16.2,-2218,-341,1974
-1548,3788,14664,16.29,203,1923,-570
3172,4200,12384,16.25,1768,-1345,1486
2156,3472,16240,16.25,1034,177,-1422
84,2096,21428,16.2,-2101,447,-4699
1520,3372,14672,16.15,1056,487,-45
-2340,3148,20504,16.25,-261,2799,1066
1312,3424,16048,16.25,-329,1265,1365
264,3464,18564,16.29,1652,2625,1572
-3292,1140,22612,16.25,-4696,1311,570
620,1884,17380,16.15,-3150,-1693,2311
-4248,1008,16208,16.25,-801,-1487,681
-2216,2144,14704,16.2,798,-1639,868
-2464,2112,17640,16.29,-20,-2140,-1882
-2296,1096,23240,16.25,-2199,-930,-2702
-904,1276,19156,16.29,1087,129,-344
-1284,844,18792,16.2,-2792,666,-2609
-1064,2144,14060,16.25,-199,604,-1004
560,4708,20040,16.2,3115,691,1157
-3732,2228,20768,16.2,3363,2365,849
-4592,288,25060,16.25,-3677,-229,1453
488,740,19760,16.2,-2007,168,2608
-604,2016,13404,16.2,1415,-2307,1703
1536,3768,13660,16.25,143,-2567,614
-1048,1256,19948,16.29,-1162,-421,-1541
868,1836,20424,16.29,-2078,1679,-4730
908,1756,16728,16.25,1531,315,-346
-2600,1944,14868,16.29,1809,-58,-1151
-1972,2868,12936,16.2,-147,-670,734
-264,3252,20004,16.34,2052,1679,518
916,3244,17184,16.25,-1990,2328,-631
-1380,2100,17556,16.15,911,-902,4816
-3788,196,15452,16.2,-696,631,208
744,2648,12704,16.2,377,-1784,2283
-92,2284,17764,16.29,3110,-988,-1407
2844,3004,20836,16.25,2241,108,-1620
-1720,2236,17752,16.25,1039,-101,-2251
2692,2392,15192,16.2,-5362,1746,-2861
696,3804,11592,16.39,4157,1966,-1018
-136,5600,19176,16.29,882,-2544,-1337
-2492,3348,21984,16.2,649,4020,-890
-2460,1536,22408,16.25,-2202,1410,-205
-88,2404,13468,16.25,-3686,-1397,1267
488,2624,12188,16.29,-369,-192,652
3040,3612,16476,16.29,1240,-374,-445
428,2196,19720,16.25,1652,-118,-3209
-1252,2764,19520,16.25,-2415,250,-5504
840,3472,12708,16.29,1805,1151,948
-2584,3004,17136,16.39,2870,1311,360
-2180,3532,16088,16.34,1004,-418,437
1560,3848,16780,16.29,2240,1829,1601
-1196,3680,18204,16.29,-3220,1789,-92
1180,4320,14488,16.25,1392,-1468,2575
-176,2024,18144,16.29,-1296,209,2331
-2000,1736,16568,16.29,2645,-5139,4511
1388,3656,16784,16.34,3323,-368,-2884
3736,3124,20892,16.29,859,-7,-2223
-3504,1820,19808,16.29,466,-598,1423
-2148,2776,23328,16.34,618,588,754
-804,2916,14432,16.29,855,-625,2081
-1824,3752,17348,16.39,389,1927,-892
1832,6304,18096,16.34,-56,249,2900
-3696,1956,19216,16.29,-501,232,1188
156,1468,18932,16.39,-1213,1249,2006
1752,3080,13512,16.34,1063,-2323,2958
840,2104,16208,16.29,1679,-1227,-2812
3872,5108,24192,16.29,-1034,-1334,-1750
-4628,1016,20080,16.29,-718,-1823,-1698
232,2788,15672,16.34,-2743,851,-3902
796,2464,8968,16.34,4441,-2733,-4712
-2008,4072,18536,16.39,1428,1700,-4013
-2156,4300,21176,16.29,128,1068,1835
-4256,2184,24404,16.39,-3136,234,2891
992,1592,15784,16.34,-4317,-34,1904
104,2552,13440,16.34,0,-2123,1746
1356,3956,15476,16.29,-229,-1075,-354
-2100,3084,20648,16.39,573,-1251,-4345
-2664,2080,23124,16.34,-4296,1160,-4029
4228,3492,13176,16.39,-186,-800,-799
316,2788,13288,16.39,1066,-213,-380
616,4432,14776,16.34,793,245,-728
1568,3868,19596,16.39,808,802,-408
-3816,2208,23960,16.39,-3323,1308,713
600,2636,18236,16.34,-3152,415,2788
1216,2472,15224,16.29,1272,658,2806
3100,3752,13272,16.39,1571,-1305,49
-2972,2776,20368,16.39,62,-1310,-4466
-1124,2324,19760,16.34,-3384,887,-6656
2364,3444,16788,16.34,1031,97,-393
-600,3432,15608,16.29,1018,1821,165
16,4004,11892,16.34,-324,770,985
1812,4512,21200,16.34,-1136,-603,1762
-1320,3508,16236,16.39,3565,3538,2137
-312,3444,17800,16.34,2672,-267,3570
-1060,2288,16416,16.34,200,150,598
-748,2580,15040,16.39,-2390,-1370,1321
-1288,3784,17272,16.34,-93,83,605
884,3608,21480,16.34,-48,-2350,-1212
-3312,1920,22712,16.29,-2547,1184,-2087
1348,2420,15524,16.29,-670,436,169
48,2500,13208,16.34,1057,723,-1339
912,4096,16300,16.29,14,40,744
-552,4160,17432,16.29,1443,572,672
2520,5576,17244,16.2,3131,2345,1637
-968,2812,19796,16.34,2550,-1275,1969
-1112,1740,18860,16.34,-127,672,-958
-2716,1692,16636,16.34,-3079,-1033,-1405
-280,4924,17216,16.39,309,-602,-4080
-168,4900,19228,16.39,-609,-3383,-2115
128,2816,23360,16.34,-1475,-196,-5875
2640,2708,15556,16.34,-497,-65,-2524
-892,2960,16268,16.34,-485,-44,-3567
-88,4208,14788,16.39,-912,86,-2630
-388,5228,16740,16.34,1279,212,-1417
2936,6828,20060,16.34,1083,2614,-945
-2748,1980,21448,16.2,4380,-930,62
568,3044,20120,16.29,-1120,620,-2841
-1536,2572,15700,16.39,1678,-1038,-1605
-1728,3884,17160,16.34,424,-1259,-3727
-1748,4268,20584,16.44,493,-1657,-5544
-2312,1956,23272,16.48,-674,-215,-9325
3152,4472,13548,16.34,-185,-243,-5541
-1272,3712,12760,16.29,1781,148,-3403
1424,4644,12660,16.44,577,-19,-3266
1992,5732,17640,16.39,248,-59,-2185
1712,4768,20480,16.29,94,333,-3937
-1748,3456,18116,16.34,3102,-298,405
184,3308,16264,16.39,-539,-790,-3264
-900,3468,15484,16.29,1249,-2475,-1015
772,4120,16136,16.2,1977,-602,-3536
4364,3756,21088,16.34,1368,-1255,-5793
3548,3404,20248,16.34,1990,498,-4541
1052,3720,14556,16.29,-1629,-1351,-6072
-3076,2728,13464,16.29,-295,-693,-4072
-1000,5376,17268,16.25,-690,-346,-2936
-1884,4364,19868,16.34,430,269,-2028
-2688,1132,23236,16.29,-2470,910,-1298
96,2272,17212,16.2,-944,-1879,-1149
-1196,2960,14560,16.25,-2472,839,-190
1240,3232,11144,16.29,2392,-964,-291
-1000,2848,17192,16.29,931,-828,-2415
216,2048,22088,16.34,-4858,282,-4157
708,1668,17716,16.25,-578,-56,-1017
1212,2140,16044,16.29,479,864,-2403
1600,2732,14692,16.29,1767,-745,928
-1648,3876,18076,16.34,2898,531,-285
-188,3516,17452,16.29,3368,1845,1725
-3328,1436,18604,16.2,513,-126,1527
-1492,1080,17100,16.25,-850,-784,900
-2028,1468,16272,16.2,-2405,146,1200
564,2872,15352,16.25,-359,-582,109
-644,2668,21632,16.29,81,-1387,-1174
-3408,988,25656,16.29,30,326,-2674
2636,3520,12360,16.29,813,-259,-1482
136,3812,12728,16.2,271,1015,-1150
2736,4452,14092,16.15,-425,75,1535
1036,4472,16416,16.2,1172,1640,746
1820,4704,18152,16.2,-805,522,1515
-2160,2420,14152,16.25,1979,-1178,2323
-1036,2028,18240,16.11,-1447,98,616
172,2316,14844,16.25,1209,-1980,846
404,3156,19816,16.15,1012,-529,-2284
2828,3116,19740,16.2,2607,520,-2140
-1492,1692,21340,16.2,-1195,-850,-1354
1368,2636,17156,16.25,170,1556,-1913
-1460,2900,14232,16.2,903,-861,473
-844,4312,19548,16.29,1193,925,-509
-1884,2928,23316,16.25,2027,1390,179
-3672,904,23448,16.2,1644,658,1770
2076,2532,18860,16.2,-1330,482,1
-3340,1608,16192,16.15,226,-1092,1737
1296,3496,17488,16.11,562,-1243,-299
-4232,3336,22116,16.25,-2093,-1312,-307
-576,2488,24364,16.11,-2478,-174,-2125
1364,2228,12728,16.11,-1096,-85,-1811
728,3220,12196,16.2,1521,1292,-1531
2224,4300,14356,16.11,688,88,146
-1072,3908,18096,16.06,1570,640,1218
1316,4036,18512,16.2,-1738,2113,-77
148,3096,13976,16.25,412,-961,2097
-3560,1532,16616,16.15,-2040,-1350,-85
-328,2988,11948,16.2,-656,-975,1120
448,3996,16600,16.06,1137,-1196,-927
1308,3684,19220,16.11,-431,-415,-2895
320,3100,16592,16.15,1340,1156,266
4,2640,18796,16.11,-2863,-259,-1666
-412,3936,14684,16.15,731,365,-1099
488,5216,18200,16.11,3101,-56,801
-3992,4312,21372,16.15,2115,654,1967
540,3404,23520,16.2,74,934,1965
48,1504,19964,16.06,-2967,-116,-47
-1720,2668,16588,16.11,304,-3127,1718
-240,4016,16736,16.15,907,370,-916
-916,4876,20320,16.11,-716,-1425,-2068
-432,2556,24240,16.15,-3238,495,-4471
1968,3860,16380,16.11,-1338,-287,-62
-1216,2920,14216,16.06,-39,364,-1421
232,4404,15852,16.11,209,349,-343
404,4076,20292,16.11,958,266,-416
-2712,2184,21648,16.15,-2314,1974,-171
324,3356,14828,16.11,-2490,-548,840
292,3360,12964,16.15,85,-784,1508
1192,4080,13876,16.11,487,-1008,-408
-2016,4188,18256,16.06,758,-2315,-276
-388,2612,24496,16.11,-2999,-250,-2379
2020,3588,20216,16.15,-1977,-489,698
-1556,3156,13884,16.11,1048,-372,-424
3380,3600,13868,16.11,74,171,-123
756,4688,15884,16.11,-112,2169,-1029
3100,6608,17232,16.06,-1083,2838,2229
340,3560,16820,16.11,1344,1936,2748
-44,2940,14796,16.06,-955,1191,390
996,3020,12872,16.06,2081,-1752,2600
-1752,4136,18044,16.11,3483,-1390,149
-4,4116,24488,16.06,1329,-2284,-590
-2048,2464,20136,16.11,-431,-1542,-668
464,3064,16532,16.06,-3466,-373,-671
-3020,2648,12988,16.11,1155,32,-922
476,4864,15744,16.06,-848,1339,-472
76,3248,17068,16.11,-2313,2450,513
-712,2608,21304,16.06,-5456,2003,-1840
-576,1016,17512,16.01,-5156,-145,1495
-1680,1440,13288,16.15,-228,846,1723
728,2600,13504,16.2,-511,-931,-1595
-1432,3084,18388,16.06,-179,-1160,-1436
-1876,424,22296,16.11,-3809,223,-4073
-2040,700,15336,16.06,-1689,-1354,679
-2220,956,18580,16.01,-1318,1645,-1260
-236,2408,14188,16.11,-840,95,882
-636,3512,14916,16.06,1451,1465,659
2684,3084,16628,16.01,-1004,1138,566
-2836,-148,14792,16.06,2821,-20,2472
-424,76,18636,16.01,498,1206,39
848,1284,15948,16.11,887,-1988,-254
-996,2832,14940,16.11,1846,-671,-831
-1444,2532,19184,16.06,793,-1398,-26
-2808,-880,26268,16.11,-370,-183,-1666
392,1268,14076,16.06,-1608,359,272
-2172,1212,13532,15.97,112,1314,-846
916,2776,14788,16.11,-1077,1023,-840
-140,2532,20644,16.11,1174,762,197
12,2284,21392,16.11,-3288,783,80
-584,1104,16788,16.06,-1931,144,1555
-1540,236,14812,16.01,-1387,75,-392
-436,1924,14040,15.97,-596,-559,-798
-712,2712,16312,16.01,442,-1752,-1032
1320,1488,20832,15.97,-693,251,-4169
-84,1608,17732,16.01,2496,-1367,-66
1180,2788,16552,16.06,-819,1475,-83
-2740,2052,17220,16.01,978,-1271,1972
-3216,2892,19364,16.06,2683,100,-260
-612,2960,20516,16.11,1184,1315,1254
-3120,1128,22452,16.06,-2122,2097,1220
920,1424,18072,16.01,-838,-261,-221
-1572,1384,16120,16.11,410,-633,804
320,2928,15396,16.11,1358,-948,-58
-40,2968,19132,16.11,-13,-1246,-1078
-32,1752,22360,16.15,-2192,374,-2938
1212,2692,13892,16.11,-1087,368,-382
220,2672,12972,16.11,-189,884,-16
120,3272,14920,16.06,426,666,0
-248,3056,19424,16.06,1648,195,579
-616,2596,20192,16.11,-3167,177,-1347
1132,2876,16672,16.06,-1004,-1301,2182
-524,1868,14168,16.11,-1650,311,816
1368,3132,12848,16.11,79,106,1429
1748,2796,16432,16.15,563,-119,-849
2300,2176,20996,16.11,-2468,1235,-3860
-1952,1900,15456,16.06,360,-229,398
-364,2012,15048,16.2,-417,1775,-1540
1732,4008,12644,15.97,1611,168,423
-1392,3996,16520,16.15,2566,1324,44
996,4096,16060,16.11,1164,1869,1753
-1688,2236,18728,16.11,1028,-705,2040
-328,1452,16204,16.06,-1374,-110,279
-372,2480,14920,16.11,1232,-657,685
-408,3744,16608,16.06,1986,31,-1071
-1048,3944,19928,16.2,1939,-835,-1107
-1028,2744,20012,16.15,-1098,734,-1001
-172,1936,16612,16.11,-2036,826,-1674
-2964,1500,14300,16.11,-156,711,-131
408,3992,14972,16.06,502,-1632,128
-2856,1892,21548,16.01,380,-862,1196
-1764,48,25536,16.06,-782,-318,-416
996,1888,20880,16.11,-814,-2011,1173
-1364,968,11980,16.11,868,542,-506
1168,3204,15068,16.11,992,-354,-986
76,2860,19616,16.06,-288,-547,-2534
-1176,1476,24480,16.06,-2480,1276,-3164
624,2244,16868,16.15,-203,-445,-387
-236,3080,13772,16.06,997,1508,-410
1344,3704,13112,16.11,962,380,45
-1492,3652,19204,16.11,1666,525,887
64,4264,16600,16.11,-2723,664,599
216,2748,15924,16.01,-1329,-2042,2787
-1420,2632,12584,16.15,-587,21,587
1276,3656,11064,16.11,175,-1341,1071
1140,3560,15868,16.15,408,-358,-719
1720,2520,21768,16.11,-2301,119,-1813
-108,1536,19492,16.15,390,906,-1111
-372,2080,18168,16.11,-241,1258,-2103
-1260,2476,16076,16.2,-327,-517,90
-632,4756,17792,16.06,1740,726,-131
896,3924,18776,16.11,3085,1467,1281
-1428,2008,21712,16.15,139,-777,908
524,2316,17612,16.01,132,-426,853
-1840,1932,16396,16.06,159,-2241,1542
-780,3316,19352,16.11,327,-1063,-708
-292,3404,23664,16.15,938,-1552,-1664
-864,1800,22692,16.11,-1292,299,-2317
592,1672,16112,16.15,-1948,973,-1757
2008,2968,14776,16.11,-1328,-432,-1241
-604,3640,17356,16.06,-512,-1180,-364
-708,3460,21708,16.11,2560,850,650
-1304,3108,21248,16.15,-870,10,508
2168,3432,14960,16.11,-909,716,1818
920,2488,13256,16.06,-1036,2318,-829
3008,4224,13676,16.11,771,1189,-786
-296,3736,15888,16.15,1083,844,-1580
52,3372,19416,16.11,-1644,-1084,-2732
-2072,2356,20268,16.11,799,28,457
-152,2276,20208,16.2,-1775,-544,869
324,3000,17420,16.11,-336,-466,682
128,4388,19592,16.06,538,-108,538
-2664,2556,22388,16.11,789,2019,-205
-3520,640,20600,16.11,-2153,915,-490
-1452,1664,21588,16.11,-3812,-667,697
-2688,856,15396,16.15,-973,-208,-88
2840,3364,14112,16.06,1880,125,-1061
760,2784,19956,16.15,2695,-1902,-1733
-1564,2484,22544,16.11,-1110,-1181,-3060
3176,2500,12432,16.15,-817,415,-294
700,3348,12968,16.11,1326,2261,-1754
1868,4428,16224,16.06,2323,1357,-181
-1392,3796,17256,16.11,2768,1982,557
-1164,4452,16856,16.15,-1859,734,1320
2372,4024,14748,16.11,-1022,494,3728
-1932,2168,15852,16.06,270,46,1671
560,3192,15560,16.11,547,-400,2779
4452,4184,17296,16.15,1564,-443,-2489
3140,3680,20156,16.11,2633,584,-2642
-376,3088,17720,16.15,85,-1856,813
-204,3172,16652,16.11,-938,551,-475
-3332,3588,16108,16.15,968,-137,196
-2184,4792,19440,16.11,1803,301,-1433
-3976,5272,22276,16.11,2460,-1231,1781
-5276,1688,23824,16.15,1487,-316,3725
2280,2040,17468,16.11,-2714,-37,-227
-2704,2708,14120,16.06,555,-556,106
-944,3848,18464,16.06,733,-333,-2003
1520,4684,20284,16.01,1176,-1001,-2002
1120,3400,25692,16.15,8,-1667,-717
600,2468,17928,16.06,-2322,41,-1264
-624,3716,13548,16.11,-730,254,204
-3080,4592,17368,16.01,-1060,671,-976
-2164,3576,20092,16.15,-1178,373,-937
-3576,864,23756,16.11,-3934,-1094,1549
-48,1492,17836,16.06,-903,-328,1061
-520,2116,14536,16.11,-1295,208,1183
1744,3160,13524,16.2,-1317,628,180
576,2724,18752,15.97,299,-462,-1431
-3192,344,23316,16.2,-1273,1428,156
1844,2144,14372,16.06,747,166,-378
680,2880,13844,16.01,93,2030,-1350
2128,3904,13844,16.06,-720,1378,212
348,3184,17556,16.11,42,-36,1122
-1604,1776,23296,16.06,-2528,2,-246
-1264,2944,19048,16.15,353,-1408,3735
-3216,872,15264,16.01,-793,766,7
-1012,2600,13568,16.06,-852,-206,1534
-2448,2472,14188,16.01,-515,-372,-1598
3252,4300,19412,16.06,1987,605,-743
-1272,1640,21652,16.06,43,-1106,-1641
-1252,1724,16084,16.11,-3994,-859,-1565
-3868,2432,14164,16.11,443,147,84
-700,3984,15680,16.06,1112,-2123,574
-2056,2920,20716,16.11,-60,600,285
-2784,2360,22588,16.06,-2209,702,1118
1496,2932,18156,16.15,-2059,220,1366
-776,2160,13096,16.11,831,97,987
-524,3188,14808,16.06,1096,-1008,605
-2736,3128,20720,16.11,-323,-776,-1471
-2784,2388,23800,16.2,-2415,195,-2298
2460,2360,15120,15.97,-633,125,-1750
1352,3348,15948,16.01,1269,1097,-1500
284,3936,13960,16.06,1170,478,-18
-916,3692,18048,16.15,655,1418,274
-56,4300,16632,16.15,-1193,1049,-551
868,4196,15584,16.11,397,-1584,4720
-2988,2128,16340,16.06,-1455,-411,1093
408,3052,14220,16.01,-91,5,523
392,3616,14968,16.11,-227,280,-1127
4800,4136,19492,16.06,257,-116,-1948
-4420,1404,18888,16.2,2353,-345,-1562
-48,3232,17116,16.06,-3930,-557,-502
-3488,2908,14320,16.11,-740,-191,-419
-2168,5312,16380,16.01,-256,156,-1032
-128,4036,19148,16.11,1913,2235,1327
-2024,1520,26548,16.15,-1813,-454,1590
-1800,1968,16952,16.2,-2484,-412,259
232,2984,11824,16.06,-1157,905,989
844,4204,16672,16.01,134,-175,-357
-2984,2736,19292,16.06,-335,-931,-303
-3200,2656,24368,16.15,-4967,918,-3867
1052,2780,15280,16.11,265,477,-403
2516,3536,14768,16.06,1888,1147,-1365
1300,4628,13916,16.11,302,-181,385
1444,5124,16940,16.06,2862,1400,631
3832,6176,14972,16.11,2042,1090,1117
-476,4044,19596,16.06,1377,228,4144
-564,3104,14320,16.01,1591,932,1075
-824,3892,12312,16.06,2811,-2511,3079
-1452,4080,17996,16.11,2402,-835,264
3148,4128,21832,16.2,1806,-1664,-1229
-3380,3196,19436,16.15,-514,-125,-2308
-1780,3152,14184,16.11,-3647,-368,-1510
-2300,3920,15372,16.06,183,-919,1112
-2220,5604,18508,15.97,-395,-43,-337
344,4752,19188,16.11,2202,1860,1673
-980,2876,20616,16.06,336,-133,2235
1248,4240,16912,16.11,-934,1074,166
-768,2708,16892,16.01,1730,-1760,2815
-1824,3340,16688,16.15,572,-579,-339
2736,3904,22960,16.11,-1048,-1831,-1393
-3076,3492,16724,16.06,-1060,-1225,-4004
-2048,2556,16332,16.01,65,1827,-2057
-2628,3288,14564,16.06,-910,-987,-415
-1688,3868,20252,16.11,-32,1328,-1838
-2232,4060,22864,16.11,1024,2107,403
-4668,1680,22348,16.06,-490,-1467,2499
-452,860,20032,16.01,-3030,-2244,581
-1876,2520,16136,16.06,-2809,-1137,-597
640,4028,16820,16.06,1472,1440,-1157
-1656,4148,17556,16.11,730,-760,-316
-2352,2392,25800,16.11,-2047,-1606,-1593
1316,2268,17228,16.11,-2934,1517,-1676
-700,2932,12188,16.06,365,551,-597
-240,3576,15388,16.06,1155,-313,1142
180,3608,19488,16.11,2436,1105,40
-2748,2952,21768,16.11,-4571,808,857
-992,2292,13908,16.11,-2623,27,761
984,2884,10508,16.11,1200,-289,758
3580,4308,13480,16.06,623,451,-1285
-112,4892,17416,16.11,1711,-1373,-645
3308,3776,19688,16.2,-2081,868,-3742
1992,3864,15048,16.15,-821,47,2241
-1476,2876,17676,16.11,-502,132,304
1064,4168,17424,16.11,2299,-1085,2334
-2332,4832,17032,16.15,2890,838,1086
2964,6352,16720,16.11,1226,2500,2199
1724,3768,17256,16.06,2249,1898,3141
-668,4164,15344,16.11,623,1120,1803
-120,3632,14568,16.06,2339,-473,3283
664,3912,16652,16.11,2967,-1341,414
5376,4616,18620,16.2,1624,-1330,-2452
-3096,4052,18232,16.15,418,-692,-1763
-1560,3548,15896,16.11,-433,-441,-1817
-2572,3964,16712,16.06,-23,-355,-160
-2728,4732,16492,16.15,2400,-305,262
-896,4464,18332,16.06,-1044,1484,946
-2280,3276,14784,16.2,-321,1334,588
-6740,1868,14584,16.11,-4789,1637,1952
1392,3216,12468,16.06,3313,-908,1542
-236,3108,16548,16.11,770,-1214,-2241
5744,4584,20676,16.15,3316,-1082,-3227
-5456,1720,16856,16.11,1668,-1997,-2224
-2380,3052,19544,16.15,-1833,158,-2516
-2628,3812,15484,16.15,1875,-57,1575
-1696,5652,16956,16.11,3876,-400,102
2308,5844,14980,16.2,2424,3957,1121
-332,4688,17484,16.11,1235,1907,3950
-1352,3216,18684,16.15,581,1072,1759
664,3404,16528,16.2,1090,-1497,3524
1876,5036,18300,16.15,-398,-1469,-2487
-36,3108,18620,16.11,-3175,325,-4739
2676,3284,16196,16.06,1336,-1842,2428
-1088,2644,17256,16.11,-70,962,214
-96,3044,17060,16.15,-260,-461,-82
-720,4728,17024,16.2,1892,1278,-79
3108,4784,14688,16.15,-338,3019,813
-3420,1412,20560,16.2,296,59,2852
-2588,1940,16644,16.15,-746,99,1347
120,2496,15424,16.11,2290,-2593,3376
-1300,2624,16140,16.06,811,-560,-1692
4368,4376,19116,16.2,133,-2411,-1772
-176,1952,17976,16.15,385,-77,-2146
-1664,1200,19480,16.2,-3491,-1978,-1568
-1444,2764,15592,16.15,410,1053,-828
604,4480,17724,16.11,2892,827,299
2700,3976,20372,16.34,1948,-24,3467
1392,3756,20700,16.11,1577,833,1817
-5292,580,20216,16.11,-4776,358,-585
-2160,2248,16236,16.25,115,-604,1064
-220,2560,16656,16.11,1792,650,1204
5636,4304,20920,16.15,2132,-1184,704
-3748,2440,19012,16.11,4810,1008,-2702
1540,3072,16800,16.15,-2598,-48,-800
-1092,3484,15688,16.2,315,-1131,-909
-4248,3588,18580,16.25,1228,-768,-2140
1092,3980,16560,16.11,465,1364,99
1336,2788,18700,16.06,-387,-1742,4272
-5108,1416,17704,16.11,-1859,-150,506
-3376,1976,15380,16.15,745,-65,1719
-616,3412,16408,16.15,1110,1073,-982
1956,2964,22160,16.2,421,-1517,1248
960,460,24032,16.06,-820,348,-709
-148,1880,16864,16.15,-1104,708,-2983
308,4252,8940,16.2,-1348,976,619
196,5080,14648,16.15,2199,-53,415
-1232,2884,20336,16.2,4498,1163,-105
-2712,3080,18428,16.15,-1683,-113,-333
1664,4320,17064,16.11,-2730,-990,2453
-1276,3632,13096,16.01,1029,-923,2600
3644,3428,14932,16.15,2119,-1077,1199
-2224,3068,18220,16.11,2546,-495,-1832
2700,4004,17332,16.15,-2986,1490,-2923
3968,3880,14564,16.15,-4073,969,797
244,2972,14588,16.2,-1453,375,-2412
208,3908,15324,16.29,-711,1717,-919
472,4436,16460,16.11,3286,811,3156
320,5656,14724,16.15,-1278,1279,45
464,3940,14680,16.11,-895,1090,1348
-684,3168,15600,16.15,-1666,1772,318
4124,4000,12828,16.15,2872,-101,1353
1988,3320,17056,16.29,2346,674,-1638
4220,5220,19024,16.15,-969,-110,-3429
-4940,2404,20616,16.11,-1244,1954,-155
-1596,2508,16232,16.11,-3382,688,-2052
-1620,3236,15084,16.06,1315,-1914,-1757
-1020,5260,18740,16.25,2722,-1918,235
-3288,4948,23504,16.2,2492,1742,1697
-5868,3320,22480,16.25,1027,-369,3510
-1304,1704,19604,16.2,-2306,867,929
-1028,2120,15880,16.2,-2439,-2523,1388
220,4564,15992,16.15,1581,-342,-702
-1288,4756,21580,16.11,1330,-2719,636
-932,3724,22968,16.2,1040,559,-3384
3064,4404,16988,16.15,-3154,546,-2149
-928,3280,13488,16.15,-1194,-698,-1261
880,5484,17068,16.2,675,81,-918
-2528,4356,23352,16.25,1802,1031,493
-844,3012,21292,16.25,-818,-1734,1268
2256,3944,15544,16.2,-759,586,-556
2572,3852,12524,16.29,-922,-733,2853
2876,4556,16140,16.15,1680,179,447
-2176,3720,18428,16.2,-40,701,-3655
-404,4204,19776,16.2,-4717,1382,-4985
4680,5348,12956,16.25,1427,1640,-1024
-848,3652,13784,16.34,3307,-158,2442
2180,4008,14872,16.29,-21,282,1610
656,3800,19400,16.29,-1036,1402,987
3792,5384,17852,16.2,-1665,3353,-1111
3040,4548,12448,16.11,1850,-865,2414
-3052,2956,16052,16.29,-187,-313,1130
2016,3756,14224,16.25,1772,-569,1694
-4336,3264,17696,16.25,1378,-2097,101
1628,3680,23344,16.29,-2493,831,-3686
1568,2152,17372,16.25,40,-108,-2085
-352,3504,17980,16.29,-295,219,-1604
-784,4308,14828,16.15,982,174,-896
-128,6180,19420,16.29,402,1933,-1156
-580,6392,12820,16.2,1096,3226,-84
-544,3344,13784,16.25,-733,-3712,6517
-1880,2504,15216,16.2,-901,742,-1044
-2532,2756,18056,16.25,1378,-594,1009
-300,5220,14960,16.29,2101,1022,-749
-1412,4876,20924,16.25,-1520,1138,245
-4248,2320,18364,16.2,-5404,-2790,-1046
-3020,2988,14336,16.15,-2345,-1029,-2695
-332,4168,13552,16.25,2015,893,2982
-1376,4800,17068,16.2,1159,1132,2236
-1464,3004,19316,16.29,619,742,2126
-3096,988,25696,16.11,-3565,-1224,-241
232,2536,16100,16.15,-1691,406,-1200
-4492,980,15568,16.29,-1588,-1298,-885
6468,6240,10596,16.15,1652,-473,1330
-2212,3700,17572,16.2,-287,-1286,-493
1308,2996,23196,16.25,-4169,4352,-3466
640,1840,15880,16.2,3455,-556,2117
-792,2652,21916,16.25,-2314,-12,-1159
164,3264,15312,16.15,267,528,1264
2092,5668,14808,16.2,1483,-722,2415
1352,3668,16816,16.2,-1646,2399,1607
508,2928,21128,16.2,1277,-114,3522
-2612,1312,19204,16.25,408,1104,-372
2924,4504,11904,16.2,-199,714,-658
1316,4408,14324,16.15,1368,-709,-2410
-956,5072,20816,16.15,1145,-5285,491
-1228,1380,22188,16.29,-160,-417,-3104
1040,4100,14900,16.15,-1567,387,-2408
-164,3292,13320,16.2,-215,2053,-1788
-548,4920,15784,16.2,667,-1600,-708
-160,3772,21936,16.25,2058,-1226,2134
-2152,2016,24836,16.2,-1208,-1755,2773
1444,1712,21168,16.15,-1107,1717,-646
-2112,1860,16812,16.2,-1536,-1471,-231
1076,4288,15472,16.25,1956,-1829,-219
92,4984,22092,16.2,-220,-2565,361
764,2972,25132,16.15,-1062,459,-356
5432,3688,12460,16.29,-3526,2126,-637
-608,2716,12444,16.25,107,994,-438
3308,4732,13956,16.25,-1123,-571,-2007
3028,3900,20264,16.25,-1173,-177,-3568
-712,704,24312,16.2,-3578,-850,-1140
2900,2804,16920,16.2,-4654,1351,829
396,1564,18664,16.25,373,118,475
1296,3156,14912,16.2,-1096,-375,128
-1432,3400,18400,16.15,-1072,-393,-49
1876,2588,24992,16.2,-4444,1438,-4137
1084,1436,13668,16.25,56,-544,902
-32,2612,15392,16.2,-919,1313,-1055
1100,3644,13756,16.25,281,108,1387
-112,4080,17944,16.29,1586,450,1603
2368,4264,16036,16.34,-729,1038,868
1060,1956,15224,16.25,2374,-142,867
-584,1632,17024,16.2,357,101,665
288,2632,14384,16.29,2631,-2196,738
204,3528,16492,16.25,1959,-1221,-751
4396,4160,18796,16.25,1158,-130,-2847
1136,1544,20020,16.39,262,119,-398
4176,3288,16960,16.29,-3078,1153,-2171
-1316,2196,15608,16.29,247,-822,1546
-1948,3652,18544,16.25,2300,-90,-3
1436,3488,21312,16.29,2639,778,1830
-784,2012,20560,16.25,720,153,1603
-440,1420,19092,16.29,-660,171,-811
-1592,2040,17080,16.15,318,-1029,1271
-1000,2916,19988,16.2,1810,538,-2271
1868,4676,22432,16.25,2310,-2726,1630
-172,1732,19796,16.25,-101,-1011,-610
1480,2604,17212,16.29,-3287,541,-1765
-2272,2176,15968,16.29,-2705,-325,-364
176,3608,19608,16.2,159,-956,541
-2332,2892,22608,16.25,1268,-139,644
-1920,2044,20876,16.2,98,-121,1041
584,2900,17616,16.25,-342,829,-66
484,2588,16588,16.15,-943,686,-499
4688,4352,15772,16.2,1126,2719,-702
2952,3992,17548,16.25,-250,-2015,-1344
-2016,1752,21720,16.29,-3274,-328,-2377
2644,2492,15520,16.15,-1529,2576,-3495
328,3752,11412,16.2,-529,2726,-1955
980,4356,14200,16.25,-320,-1003,1240
-828,3056,21908,16.2,-120,2530,-470
-628,4456,18624,16.25,-1675,2440,-1878
-968,2152,16348,16.2,-1372,-1110,2154
124,2504,12380,16.15,-1845,-49,38
1748,3732,12664,16.29,88,2165,-866
1972,3832,17580,16.25,479,-2017,-2052
-1228,2156,22372,16.2,-4205,341,-4466
2344,2172,16480,16.25,2119,2286,-2371
-1168,2552,19800,16.25,-180,1538,-2451
-1680,3236,16084,16.29,-643,17,-71
156,4428,20280,16.29,2252,-774,560
1720,4724,16800,16.25,450,244,58
120,3400,16660,16.2,298,-570,3307
-1564,2244,17100,16.25,-1075,-53,805
936,3292,11544,16.2,2749,-340,1788
1708,4772,14100,16.25,1806,829,-1093
6788,4456,16772,16.25,-232,-458,-2725
-600,1920,18768,16.2,-123,-503,-1613
712,3120,16736,16.25,-709,-992,-3246
-1656,3252,13032,16.2,152,-772,270
-1316,5380,18752,16.2,-27,1410,-929
-500,5336,20608,16.29,1312,821,1719
-2284,2700,22148,16.25,2821,-25,3136
1212,2640,17764,16.2,-577,1387,657
-2384,2692,14436,16.25,807,-111,431
140,4508,14232,16.2,-2639,-1066,-2189
-84,3904,20188,16.25,-1417,-281,-1462
592,2508,23248,16.29,-3746,1738,-1996
4068,1992,14608,16.15,-1594,221,-1026
68,2776,11032,16.2,3383,1605,-1309
2136,4956,13660,16.25,3822,434,203
1840,4040,20736,16.2,2015,-1779,674
-2428,2012,24112,16.15,-2492,713,46
2580,1888,11324,16.15,-954,-649,2624
-816,2364,15684,16.2,-1675,4321,-2482
3528,5400,14248,16.25,2067,-1318,-1193
-400,2356,18860,16.2,-1362,-1327,-1416
2712,3212,23836,16.15,-5647,-396,-1889
2992,1180,16336,16.11,839,-3515,7497
-908,2864,15700,16.25,2138,2500,-2324
-792,3700,14452,16.11,1295,3099,-166
-584,4736,16012,16.29,2069,713,-3755
3224,6544,17052,16.2,994,-46,614
1892,3636,13396,16.25,3924,-2572,6094
80,2588,20280,16.2,855,-85,1383
2448,3880,12728,16.2,2726,-1264,1680
348,5216,15816,16.15,1456,-822,-182
4864,5384,19316,16.2,2250,-1542,-1089
-552,3780,18952,16.15,1011,-2260,2128
-3016,1520,18500,16.29,-4271,503,-3480
-84,3624,11588,16.25,-2058,1196,-923
-1816,4888,15804,16.2,-1739,1076,-1157
-448,4072,21848,16.2,122,2257,-535
-2064,2120,21440,16.2,2833,-367,3425
-1504,2064,18384,16.11,515,-180,635
1816,3340,12048,16.2,2440,-494,-1585
1964,4948,13764,16.25,3450,-865,-1578
-1084,5092,19224,16.2,2131,-2357,-1509
-3736,2548,21120,16.29,-663,184,-2145
2608,3052,17468,16.15,-4028,-402,-2706
-1472,3880,17104,16.2,-975,83,-521
2528,5700,13740,16.25,-9,490,-1515
2556,5248,17248,16.2,1857,1655,539
-1984,2436,24452,16.25,-4409,1390,431
480,4224,16124,16.2,-565,1889,-60
-1080,3316,11900,16.25,1406,-301,1125
4564,4276,10708,16.29,1632,-1993,904
-1332,4148,16028,16.25,110,-2086,-1388
6080,5856,19824,16.2,-2845,-598,-2163
-580,2736,21244,16.15,255,-1918,640
208,3856,18628,16.2,-1059,569,-2277
-1016,3716,14948,16.25,1064,111,1233
-644,5684,14572,16.29,1192,1339,-739
-3656,3752,18252,16.2,-187,3087,-1464
-628,3128,24172,16.2,220,-406,738
-1032,2728,17492,16.29,-1902,-1567,1021
-876,2104,16028,16.15,1441,-1254,1096
284,3692,14692,16.2,376,31,-821
1052,4512,21208,16.2,-152,-1066,-606
-2800,2484,23504,16.25,835,-460,-845
-740,2268,16036,16.2,-1583,805,-2348
-948,2928,10748,16.25,-733,2419,-823
3400,4920,14096,16.2,-275,647,255
-64,3772,20212,16.2,-413,-518,1724
-584,1744,22344,16.2,-2301,623,-866
200,2168,15820,16.25,-2764,141,1127
372,1488,18504,16.2,-1711,-485,1173
1872,3424,13460,16.15,-349,-1226,712
-264,2824,17388,16.11,-432,102,-794
2976,2488,20984,16.25,-303,1203,-4861
2052,2608,18060,16.2,2054,399,291
-704,2516,15076,16.11,1936,-573,1626
-1876,3352,12788,16.2,-9,597,1939
1928,4436,18036,16.15,1124,1168,493
1176,4736,20116,16.11,-366,1719,517
80,2252,19584,16.2,1930,-128,3071
-916,1792,18232,16.25,-518,816,1131
1164,2880,14032,16.2,2064,-1576,2636
-2628,3348,15788,16.15,1208,-185,958
3568,3776,18896,16.11,225,-1650,-2123
4904,2488,20080,16.25,1754,-390,1975
-336,1800,17616,16.2,365,237,-377
-3180,2364,13684,16.15,1284,-190,871
-1328,4556,14204,16.2,55,555,570
-320,4664,20756,16.25,2901,1445,247
-5844,880,24420,16.11,-155,309,1705
-344,2384,17060,16.25,-2879,-576,709
688,3176,13276,16.2,240,1217,582
3532,4576,13760,16.25,1372,-371,-1709
-524,4476,18236,16.2,-343,-869,-2201
-2772,2936,24320,16.25,-3271,800,-5491
3068,3824,15524,16.29,570,929,-1239
2876,3740,12876,16.29,544,438,-813
2400,4784,13500,16.25,-559,650,370
988,5572,18060,16.11,834,1391,-1295
864,6884,16536,16.29,617,2019,-214
896,3924,16560,16.25,2336,-549,4113
-724,2732,15992,16.2,-313,-1437,2869
-2552,2756,14996,16.2,1971,-2431,2453
-1244,4388,17304,16.34,1655,332,-2738
4712,5788,21228,16.29,1963,-2461,-1447
-1532,2884,19904,16.15,939,-1651,-1333
316,3820,18412,16.2,-2944,-1117,-1554
-3428,3908,11472,16.25,-1598,1462,-237
1084,5744,18936,16.15,1106,1157,-530
-2480,4352,21560,16.15,807,2433,480
-5076,2220,25728,16.25,-2402,300,2393
-1764,2256,19660,16.29,-2480,-693,1963
652,3244,15884,16.34,18,-1055,896
1000,4704,15924,16.2,291,405,-1849
-2536,4340,18788,16.34,-111,285,-1005
-2320,2972,24116,16.29,-2820,355,-4191
1492,3684,15348,16.25,98,685,-2058
328,3780,13680,16.2,662,579,-1548
2172,4220,13784,16.25,880,-1650,315
-5704,4976,16624,16.2,-1616,-816,-1960
7260,7348,16676,16.25,-1387,-823,2251
-580,2732,22484,16.25,-398,-1734,5242
-1356,732,22752,16.11,-9552,3879,4903
5036,3004,17188,16.25,3330,4153,1023
-3092,2660,14540,16.25,-514,-2900,-2673
